"dur","start_time","mouse_trace_x","mouse_trace_y","interruptedResponse","pixperrefresh","refreshRate","angle","side","start_position","splitTime","fixTime","speed","subjectID","test_part","trialID","trial_type","trial_index","time_elapsed","internal_node_id","rt","stimulus","response"
"2001.8999999761581","7429.100000023842","[431,432,436,440,445,454,464,472,484,498,516,538,561,585,606,618,629,637,655,666,680,696,712,735,754,774,791,804,817,828,838,848,856,867,876,890,903,925,942,958,977,989,1002,1015,1028,1045,1062,1079,1098,1126,1149,1163,1167,1169,1169,1169,1169,1169,1169]","[469,469,469,469,469,469,469,469,469,470,472,473,473,473,473,473,473,473,473,473,473,473,473,473,473,473,473,473,473,473,473,473,473,473,473,473,473,472,471,469,468,468,468,468,469,470,471,471,471,468,466,464,463,463,465,465,465,465,465]","false","13.167000000000002","33","315","l","-300","976.2865734098609","0","399","AB","trial","7","manual-tracking","0","9381","0.0-0.0-0.0","","",""
"","","","","","","","","","","","","","","feedback","","html-button-response","1","10885","0.0-0.0-1.0","null","<p>Well done.</p>","null"
"2001.1999999284744","12144.200000047684","[1045,1045,1045,1044,1040,1030,1015,999,970,947,923,900,878,861,845,831,821,813,804,795,784,771,754,738,724,699,683,658,641,626,609,592,576,557,543,530,517,503,489,476,465,455,444,435,427,419,409,394,381,367,354,335,317,302,295,293,293,293,293]","[469,469,469,469,469,469,469,469,472,476,482,487,491,493,494,494,494,494,491,488,483,480,477,475,474,472,470,469,469,468,468,468,468,468,468,469,469,470,471,472,473,474,474,474,474,474,474,475,475,476,477,479,480,482,484,484,484,484,484]","false","13.167000000000002","33","90","r","300","813.4207443238477","0","399","AB","trial","26","manual-tracking","2","14095","0.0-0.0-0.1","","",""
"","","","","","","","","","","","","","","feedback","","html-button-response","3","15598","0.0-0.0-1.1","null","<p>Well done.</p>","null"
"2001.5999999046326","17227.700000047684","[437,437,437,439,443,452,460,477,486,491,508,515,536,552,569,590,617,638,660,680,697,710,723,734,743,753,761,770,782,795,810,826,844,861,876,888,896,909,924,941,962,987,1015,1034,1051,1065,1077,1091,1104,1120,1138,1164,1191,1208,1218,1220,1221,1221,1221]","[469,469,469,469,469,469,469,467,467,467,466,466,466,466,466,466,466,466,466,467,467,468,468,468,468,469,469,469,469,469,469,469,470,470,472,472,472,472,472,472,471,470,469,469,469,469,469,469,469,469,469,469,470,470,470,469,468,468,468]","false","13.167000000000002","33","135","l","-300","888.6096109282989","0","399","AB","trial","19","manual-tracking","4","19179","0.0-0.0-0.2","","",""
"","","","","","","","","","","","","","","feedback","","html-button-response","5","20683","0.0-0.0-1.2","null","<p>Well done.</p>","null"
"2001.1999999284744","22877.100000023842","[1038,1035,1034,1033,1029,1024,1017,1008,992,971,948,927,912,899,889,881,874,865,854,831,812,791,773,756,745,735,726,719,713,706,697,685,671,655,636,614,597,582,568,551,540,529,517,505,491,471,459,446,432,416,401,386,368,357,345,332,316,301,291]","[474,474,474,474,474,474,474,474,474,477,481,483,484,484,484,484,483,481,480,478,476,474,472,470,469,468,468,468,468,468,468,469,471,472,474,475,475,475,475,475,474,472,471,469,467,465,465,465,464,464,464,464,464,464,464,464,465,468,471]","false","13.167000000000002","33","0","r","300","1069.0603519460137","0","399","AB","trial","40","manual-tracking","6","24827","0.0-0.0-0.3","","",""
"","","","","","","","","","","","","","","feedback","","html-button-response","7","26329","0.0-0.0-1.3","null","<p>Well done.</p>","null"
"2001.9000000953674","28494.799999952316","[1036,1035,1030,1022,1018,1014,1008,1002,990,972,946,921,905,894,885,873,864,855,846,835,825,813,801,791,783,773,761,747,727,709,691,673,658,642,626,611,597,584,558,554,534,522,509,491,473,456,441,420,405,390,372,353,342,335,332,331,331,331,331]","[464,464,464,464,464,464,464,464,463,463,463,466,467,467,467,467,467,467,466,465,463,463,463,463,462,461,461,462,465,468,469,470,470,470,470,470,469,468,468,468,468,465,463,460,459,457,456,455,455,455,455,455,457,459,460,460,460,463,463]","false","13.167000000000002","33","225","r","300","1052.844769922602","0","399","AB","trial","61","manual-tracking","8","30446","0.0-0.0-0.4","","",""
"","","","","","","","","","","","","","","feedback","","html-button-response","9","31949","0.0-0.0-1.4","null","<p>Well done.</p>","null"
"2002.6000000238419","33828.10000002384","[1043,1041,1034,1023,1004,991,979,967,954,942,931,921,912,900,889,875,854,839,824,810,798,784,771,762,754,744,734,720,704,685,668,649,635,623,611,600,584,572,557,538,522,510,498,487,479,469,459,449,443,442,441,440,439,439,439,439,439,439,439]","[464,464,464,464,464,464,464,464,464,464,464,463,463,462,462,462,462,461,460,459,457,457,457,457,458,458,460,461,464,467,470,473,475,476,477,477,477,477,477,477,476,475,473,471,470,470,470,470,470,470,470,470,470,470,472,472,472,472,472]","false","13.167000000000002","33","315","r","300","1198.1062494751795","0","399","AB","trial","31","manual-tracking","10","35779","0.0-0.0-0.5","","",""
"","","","","","","","","","","","","","","feedback","","html-button-response","11","37281","0.0-0.0-1.5","null","<p>Well done.</p>","null"
"2001.6000000238419","39295","[438,438,438,439,446,454,465,475,486,498,510,531,544,558,574,589,600,615,630,646,665,680,695,709,723,738,751,765,777,792,805,819,836,852,871,902,922,948,967,983,996,1011,1028,1045,1056,1065,1074,1086,1098,1111,1126,1143,1163,1193,1210,1216,1216,1216,1216]","[473,473,473,473,473,473,473,473,473,473,473,473,473,473,473,473,473,475,476,476,478,479,481,483,485,487,488,488,488,489,489,489,489,488,485,481,478,475,473,472,470,469,468,467,467,467,468,470,472,473,475,477,479,483,485,486,486,486,486]","false","13.167000000000002","33","180","l","-300","1036.2619430445952","0","399","AB","trial","52","manual-tracking","12","41245","0.0-0.0-0.6","","",""
"","","","","","","","","","","","","","","feedback","","html-button-response","13","42747","0.0-0.0-1.6","null","<p>Well done.</p>","null"
"2001.8999999761581","44295.10000002384","[434,434,436,441,446,453,462,468,475,489,503,517,537,563,588,614,630,642,654,666,677,689,701,716,727,741,753,766,777,792,801,814,826,839,851,868,889,916,941,961,977,994,1011,1031,1053,1072,1089,1109,1128,1147,1171,1189,1195,1197,1198,1198,1198,1198,1198]","[476,476,476,476,476,476,476,476,476,476,476,476,474,468,463,460,460,460,460,461,463,465,468,470,472,474,474,474,474,475,475,476,476,477,477,477,477,477,477,477,476,476,476,476,476,480,483,486,487,488,490,490,490,487,484,484,484,484,484]","false","13.167000000000002","33","135","l","-300","1059.2309665873327","0","399","AB","trial","67","manual-tracking","14","46245","0.0-0.0-0.7","","",""
"","","","","","","","","","","","","","","feedback","","html-button-response","15","47748","0.0-0.0-1.7","null","<p>Well done.</p>","null"
"2004.8000000715256","49579.299999952316","[1037,1033,1030,1029,1028,1027,1024,1015,1002,984,960,945,934,928,922,915,905,877,850,816,802,768,748,730,718,706,696,687,674,662,648,631,612,592,572,555,541,524,512,501,490,479,468,454,441,427,402,391,381,370,358,347,333,315,293,265,254,248,246]","[461,461,461,461,461,461,461,461,461,461,462,462,462,462,460,459,459,460,463,467,468,468,468,468,468,468,468,468,468,468,469,470,471,472,472,472,472,471,471,470,469,469,467,465,464,462,461,460,460,460,460,462,465,471,476,485,489,494,498]","false","13.167000000000002","33","0","r","300","1158.7145697967987","0","399","AB","trial","72","manual-tracking","16","51532","0.0-0.0-0.8","","",""
"","","","","","","","","","","","","","","feedback","","html-button-response","17","53035","0.0-0.0-1.8","null","<p>Well done.</p>","null"
"2001.3999999761581","54345.5","[437,437,443,451,461,467,473,480,491,501,514,526,542,563,587,601,616,630,642,653,667,682,694,705,713,723,735,750,769,784,803,819,835,851,867,879,901,924,957,982,1004,1022,1037,1047,1057,1065,1074,1091,1111,1135,1147,1152,1153,1153,1153,1153,1153,1153,1153]","[467,467,467,467,467,467,467,467,467,469,473,476,479,480,481,482,483,484,485,485,485,485,485,485,485,485,483,480,477,475,474,473,471,468,464,461,458,455,452,449,447,447,448,451,455,458,461,464,466,466,466,464,463,463,463,463,463,463,463]","false","13.167000000000002","33","45","l","-300","814.325250157513","0","399","AB","trial","33","manual-tracking","18","56295","0.0-0.0-0.9","","",""
"","","","","","","","","","","","","","","feedback","","html-button-response","19","57798","0.0-0.0-1.9","null","<p>Well done.</p>","null"
"2001.3000000715256","59611.799999952316","[447,447,449,454,460,466,476,483,499,509,521,534,548,560,572,581,593,608,622,636,653,670,688,706,721,742,760,776,788,804,818,841,859,878,895,919,942,957,967,973,980,991,1006,1024,1040,1052,1061,1075,1093,1109,1120,1123,1124,1124,1124,1124,1124,1124,1124]","[465,465,465,465,465,465,465,465,465,465,465,464,464,463,463,463,463,463,463,463,463,463,464,465,466,468,469,470,471,471,472,473,473,475,475,475,475,474,474,474,474,473,471,469,468,467,467,467,467,467,466,465,464,464,464,464,464,464,464]","false","13.167000000000002","33","0","l","-300","896.2229845167114","0","399","AB","trial","48","manual-tracking","20","61561","0.0-0.0-0.10","","",""
"","","","","","","","","","","","","","","feedback","","html-button-response","21","63063","0.0-0.0-1.10","null","<p>Well done.</p>","null"
"2001.6000000238419","65012.89999997616","[455,464,475,488,502,517,531,540,550,557,565,576,588,601,615,630,648,660,670,683,691,698,706,717,729,749,770,794,816,834,846,862,876,888,902,911,918,925,932,941,948,956,968,982,1000,1023,1060,1078,1083,1099,1111,1128,1140,1147,1152,1155,1156,1156,1156]","[470,470,470,470,470,470,470,470,471,472,472,472,472,472,472,472,473,474,476,479,480,481,482,482,482,482,481,478,476,474,474,473,472,471,471,471,471,471,473,474,475,475,475,475,475,477,482,487,488,490,490,488,486,484,482,480,478,477,477]","false","13.167000000000002","33","90","l","-300","962.9325388024205","0","399","AB","trial","34","manual-tracking","22","66962","0.0-0.0-0.11","","",""
"","","","","","","","","","","","","","","feedback","","html-button-response","23","68464","0.0-0.0-1.11","null","<p>Well done.</p>","null"
"2001.1000000238419","70329.10000002384","[1043,1036,1027,1019,1010,1004,1000,997,993,987,972,958,940,923,907,894,873,862,850,834,821,804,784,759,738,718,701,685,670,660,652,644,637,628,619,610,596,576,560,540,519,498,482,470,458,445,436,428,420,410,403,397,390,383,369,352,335,319,308]","[469,469,469,469,469,469,469,469,469,469,469,471,472,472,472,472,472,472,471,470,469,468,467,466,466,466,466,466,466,466,466,466,466,466,466,467,468,468,470,472,475,477,478,478,478,478,478,478,478,475,473,471,469,466,463,462,462,462,462]","false","13.167000000000002","33","45","r","300","862.9442352680094","0","399","AB","trial","9","manual-tracking","24","72277","0.0-0.0-0.12","","",""
"","","","","","","","","","","","","","","feedback","","html-button-response","25","73779","0.0-0.0-1.12","null","<p>Well done.</p>","null"
"2001.3999999761581","75146.60000002384","[434,441,446,453,460,467,473,481,493,506,527,544,566,592,616,642,655,666,678,686,691,697,704,716,731,750,772,798,820,841,859,874,884,895,904,911,926,932,949,962,975,987,1002,1020,1045,1065,1083,1101,1119,1134,1164,1187,1199,1201,1202,1202,1202,1202,1202]","[466,466,466,466,466,466,466,466,466,466,466,466,466,465,464,464,465,466,468,470,471,472,472,472,472,472,471,470,468,467,466,466,466,467,469,470,472,472,474,474,475,475,475,477,481,483,484,484,483,482,482,482,482,482,482,482,482,482,482]","false","13.167000000000002","33","315","l","-300","866.8505627468144","0","399","AB","trial","39","manual-tracking","26","77095","0.0-0.0-0.13","","",""
"","","","","","","","","","","","","","","feedback","","html-button-response","27","78597","0.0-0.0-1.13","null","<p>Well done.</p>","null"
"2001.2000000476837","79962","[1038,1038,1037,1035,1032,1027,1018,1007,991,972,942,918,896,877,859,843,829,817,803,792,771,755,738,720,703,686,670,649,633,617,603,590,578,567,553,544,532,519,507,495,484,475,464,450,433,405,390,376,366,354,338,326,316,307,303,303,303,303,303]","[469,469,469,469,469,469,469,469,469,470,472,474,474,474,474,474,474,474,474,473,472,471,471,470,469,468,468,468,468,468,469,470,471,472,473,474,474,474,474,474,474,472,470,470,470,470,470,469,466,463,461,459,456,456,457,460,460,460,460]","false","13.167000000000002","33","270","r","300","1133.4321144346666","0","399","AB","trial","78","manual-tracking","28","81910","0.0-0.0-0.14","","",""
"","","","","","","","","","","","","","","feedback","","html-button-response","29","83415","0.0-0.0-1.14","null","<p>Well done.</p>","null"
"2001.1999999284744","85362.60000002384","[436,436,439,445,450,454,460,471,486,520,542,567,579,611,629,642,653,666,677,685,693,703,713,727,741,755,769,785,798,812,825,842,863,881,901,918,933,946,961,974,983,991,999,1007,1018,1027,1038,1053,1072,1088,1100,1110,1124,1150,1194,1212,1219,1220,1220]","[470,470,470,470,470,470,470,470,470,471,472,473,473,473,473,473,473,473,473,473,473,473,473,473,473,473,473,473,473,473,472,472,471,471,471,471,471,473,475,477,478,479,480,481,483,484,485,485,485,485,485,485,486,486,486,486,484,484,484]","false","13.167000000000002","33","225","l","-300","905.1092929972315","0","399","AB","trial","21","manual-tracking","30","87310","0.0-0.0-0.15","","",""
"","","","","","","","","","","","","","","feedback","","html-button-response","31","88812","0.0-0.0-1.15","null","<p>Well done.</p>","null"
"2000.8999999761581","90495.89999997616","[424,425,428,434,441,448,458,468,487,508,534,556,577,596,615,630,645,666,678,692,702,716,729,743,756,767,786,800,815,830,844,858,875,893,912,933,949,973,984,996,1008,1016,1025,1043,1064,1086,1105,1127,1147,1165,1179,1190,1198,1201,1202,1202,1202,1202,1202]","[448,448,448,448,448,448,448,448,448,448,448,449,450,450,450,451,451,452,453,454,455,457,458,460,462,463,465,466,466,466,466,466,466,466,466,466,466,466,466,466,466,466,466,463,460,459,459,459,459,461,463,466,469,470,470,470,470,470,470]","false","13.167000000000002","33","0","l","-300","1170.053179188525","0","399","AB","trial","64","manual-tracking","32","92443","0.0-0.0-0.16","","",""
"","","","","","","","","","","","","","","feedback","","html-button-response","33","94023","0.0-0.0-1.16","null","<p>Well done.</p>","null"
"2001.8000000715256","95513.29999995232","[434,434,438,447,458,469,481,495,517,523,552,569,584,598,611,627,642,659,676,699,717,732,747,758,769,778,787,796,804,820,831,843,859,877,897,917,937,957,975,989,1005,1018,1034,1053,1079,1091,1097,1098,1098,1098,1098,1098,1098,1098,1098,1098,1098,1112]","[462,462,462,462,462,462,462,462,462,462,468,472,476,480,482,484,485,486,487,487,487,486,485,485,485,485,484,483,482,480,477,473,469,464,459,456,453,450,448,447,447,447,450,455,461,466,472,475,475,475,475,475,475,475,475,475,475,470]","false","13.167000000000002","33","90","l","-300","983.507598524244","0","399","AB","trial","18","manual-tracking","34","97539","0.0-0.0-0.17","","",""
"","","","","","","","","","","","","","","feedback","","html-button-response","35","99041","0.0-0.0-1.17","null","<p>Well done.</p>","null"
"2001.1000000238419","100846.5","[435,435,438,443,452,458,465,475,487,502,522,545,570,608,622,634,646,655,665,676,690,705,727,747,766,781,795,803,807,811,819,836,852,868,884,902,920,941,970,1024,1039,1042,1042,1042,1042,1042,1042,1042,1042,1042,1053,1078,1102,1142,1177,1208,1250,1279,1296]","[470,470,470,470,470,470,470,470,470,472,474,474,474,473,473,473,473,475,476,477,477,478,479,479,479,479,479,479,479,479,479,479,479,479,479,478,477,477,477,477,477,478,478,478,478,478,478,478,478,478,475,470,466,462,462,462,462,462,462]","false","13.167000000000002","33","315","l","-300","913.6678957175503","0","399","AB","trial","71","manual-tracking","36","102871","0.0-0.0-0.18","","",""
"","","","","","","","","","","","","","","feedback","","html-button-response","37","104374","0.0-0.0-1.18","null","<p>Well done.</p>","null"
"2001.1000000238419","106746.60000002384","[1041,1039,1034,1027,1021,1016,1011,1006,992,978,962,946,929,915,898,877,845,821,803,788,775,763,750,739,727,715,699,685,670,655,639,621,604,588,574,559,549,538,528,518,504,494,485,476,465,453,443,433,422,405,381,343,290,245,231,230,230,230,230]","[465,465,465,465,465,465,465,465,464,464,464,464,464,464,464,463,463,463,462,462,461,460,459,459,458,458,457,457,456,456,456,456,456,456,456,454,453,452,452,451,451,451,451,451,451,451,452,452,452,451,451,453,464,473,478,479,479,479,479]","false","13.167000000000002","33","45","r","300","815.0099662001361","0","399","AB","trial","57","manual-tracking","38","108771","0.0-0.0-0.19","","",""
"","","","","","","","","","","","","","","feedback","","html-button-response","39","110277","0.0-0.0-1.19","null","<p>Well done.</p>","null"
"2001","111046.5","[438,438,438,438,438,438,438,438,438,438,454,483,527,561,593,623,640,656,670,683,695,711,725,742,763,794,817,839,860,879,897,915,936,951,965,980,996,1011,1026,1040,1052,1063,1077,1085,1091,1098,1106,1114,1121,1134,1156,1175,1193,1211,1230,1258,1289,1306,1313]","[461,461,461,461,461,461,461,461,461,461,460,455,451,451,451,452,454,455,456,457,459,461,463,465,468,472,475,477,478,478,479,479,479,479,478,477,476,476,476,476,476,476,475,475,475,476,476,476,476,475,470,468,468,468,471,474,476,476,474]","false","13.167000000000002","33","225","l","-300","949.8962595189357","0","399","AB","trial","69","manual-tracking","40","113071","0.0-0.0-0.20","","",""
"","","","","","","","","","","","","","","feedback","","html-button-response","41","114573","0.0-0.0-1.20","null","<p>Well done.</p>","null"
"2001.5","116130.29999995232","[1044,1044,1042,1040,1035,1026,1009,991,968,947,936,931,930,927,923,915,904,863,831,805,784,771,758,749,740,732,723,712,698,681,662,643,625,601,580,558,533,526,504,489,477,463,449,439,433,418,405,394,383,374,368,362,354,346,333,318,303,288,277]","[471,471,471,471,471,471,471,471,468,465,462,461,461,461,460,460,460,460,461,462,463,463,463,463,463,463,464,464,464,466,467,468,468,468,467,466,463,462,462,462,462,462,462,462,462,463,464,464,464,465,465,465,465,465,467,468,469,469,470]","false","13.167000000000002","33","0","r","300","951.3195347952874","0","399","AB","trial","56","manual-tracking","42","118155","0.0-0.0-0.21","","",""
"","","","","","","","","","","","","","","feedback","","html-button-response","43","119657","0.0-0.0-1.21","null","<p>Well done.</p>","null"
"2001.5","120863.20000004768","[436,436,436,439,445,455,471,490,513,536,559,586,612,628,641,656,669,681,693,708,720,735,752,771,791,811,827,845,856,867,880,894,911,926,942,958,980,999,1017,1033,1050,1063,1074,1083,1090,1090,1090,1090,1090,1090,1090,1090,1090,1109,1146,1204,1265,1313]","[473,473,473,473,473,473,473,473,473,473,473,473,473,474,474,474,474,474,474,474,474,473,473,475,479,483,483,483,479,476,475,474,474,475,477,477,478,478,478,478,478,478,478,478,478,478,478,478,478,478,478,478,478,474,470,467,467,468]","false","13.167000000000002","33","315","l","-300","1111.010400921727","0","399","AB","trial","23","manual-tracking","44","122888","0.0-0.0-0.22","","",""
"","","","","","","","","","","","","","","feedback","","html-button-response","45","124391","0.0-0.0-1.22","null","<p>Well done.</p>","null"
"2000.8000000715256","126098.79999995232","[439,439,440,444,453,468,484,498,514,526,545,563,586,607,622,633,640,647,652,658,667,676,689,701,714,731,745,758,774,800,819,837,849,860,868,876,884,893,905,917,931,946,960,978,993,1010,1027,1036,1043,1043,1043,1043,1043,1043,1043,1043,1043,1043,1043]","[475,475,475,475,475,475,475,475,475,472,470,470,469,468,467,466,466,466,466,466,466,466,466,465,465,465,465,466,468,470,471,471,471,471,471,470,470,469,468,467,467,467,467,467,467,467,468,471,474,476,476,476,476,476,476,476,476,476,476]","false","13.167000000000002","33","270","l","-300","1170.89796038443","0","399","AB","trial","38","manual-tracking","46","128123","0.0-0.0-0.23","","",""
"","","","","","","","","","","","","","","feedback","","html-button-response","47","129625","0.0-0.0-1.23","null","<p>Well done.</p>","null"
"2001.7000000476837","131197","[1040,1039,1033,1025,1014,997,980,965,944,928,910,892,873,859,844,823,811,796,782,768,752,737,722,708,695,681,666,653,639,625,609,594,578,563,548,529,507,491,475,459,442,426,408,385,363,351,347,345,345,345,345,345,345,345,345,345,345,345]","[468,468,468,468,468,468,468,468,468,468,470,472,474,475,476,477,477,477,478,478,479,479,479,478,475,474,471,470,469,469,469,469,469,470,471,471,471,471,471,471,471,471,471,473,475,477,479,482,482,482,482,482,482,482,482,482,482,482]","false","13.167000000000002","33","315","r","300","1195.689439649692","0","399","AB","trial","79","manual-tracking","48","133222","0.0-0.0-0.24","","",""
"","","","","","","","","","","","","","","feedback","","html-button-response","49","134723","0.0-0.0-1.24","null","<p>Well done.</p>","null"
"2000.8999999761581","136430.20000004768","[1036,1035,1029,1018,1002,985,965,948,934,917,901,888,873,863,849,831,817,800,783,762,750,743,726,714,700,690,680,667,655,641,624,606,587,565,548,536,524,516,508,501,493,484,467,455,440,421,403,390,382,379,377,377,377,377,377,377,377,377,377]","[466,466,466,466,466,468,469,469,469,467,465,465,465,465,465,465,465,465,466,466,466,466,466,466,466,466,466,466,466,467,469,470,472,475,477,478,480,481,481,481,481,481,482,483,484,484,484,484,482,479,475,472,470,470,470,470,470,470,470]","false","13.167000000000002","33","135","r","300","1026.0133056797317","0","399","AB","trial","59","manual-tracking","50","138454","0.0-0.0-0.25","","",""
"","","","","","","","","","","","","","","feedback","","html-button-response","51","139957","0.0-0.0-1.25","null","<p>Well done.</p>","null"
"2001.1000000238419","141098.39999997616","[436,436,437,441,449,459,474,492,522,541,558,580,595,610,620,630,640,649,658,669,681,699,712,725,739,752,764,779,799,820,833,843,852,860,870,883,897,917,948,973,993,1014,1036,1073,1083,1108,1125,1147,1165,1181,1194,1202,1208,1210,1211,1211,1211,1211,1211]","[469,469,469,469,469,469,469,469,469,469,470,471,471,471,471,471,471,471,471,470,470,470,470,470,471,473,476,478,479,479,479,480,482,483,485,485,484,479,471,467,465,465,465,467,467,467,467,467,467,466,466,466,466,465,464,464,464,464,464]","false","13.167000000000002","33","45","l","-300","915.2383600160439","0","399","AB","trial","65","manual-tracking","52","143122","0.0-0.0-0.26","","",""
"","","","","","","","","","","","","","","feedback","","html-button-response","53","144624","0.0-0.0-1.26","null","<p>Well done.</p>","null"
"2001.7999999523163","145947.70000004768","[1040,1040,1040,1039,1031,1020,1007,983,963,943,926,911,899,887,873,860,845,830,811,792,769,753,738,724,709,699,682,671,661,647,635,620,606,594,577,561,543,523,498,480,465,452,437,426,413,399,387,369,354,338,322,304,285,277,273,270,270,270,270]","[464,464,464,464,464,464,464,464,464,464,464,464,464,464,464,464,464,465,466,467,468,468,468,468,468,468,466,465,465,464,463,462,461,460,460,460,460,461,464,466,468,469,471,473,473,474,475,475,475,475,475,475,475,475,474,474,474,474,474]","false","13.167000000000002","33","45","r","300","806.5563314126141","0","399","AB","trial","41","manual-tracking","54","147972","0.0-0.0-0.27","","",""
"","","","","","","","","","","","","","","feedback","","html-button-response","55","149475","0.0-0.0-1.27","null","<p>Well done.</p>","null"
"2001.2999999523163","151014.20000004768","[1040,1040,1039,1034,1023,1011,999,984,963,939,902,879,856,842,826,812,800,783,768,750,736,720,706,692,675,662,649,634,621,606,589,573,558,543,529,516,505,491,467,452,441,425,411,398,385,370,357,346,340,338,338,338,338,338,338,338,338,338,338]","[465,465,465,465,465,465,465,465,465,465,466,467,469,469,469,469,469,469,469,470,471,471,471,471,471,471,471,471,471,471,471,472,474,475,476,476,476,476,477,477,478,479,481,482,483,484,485,485,485,484,482,482,482,482,482,482,482,482,482]","false","13.167000000000002","33","90","r","300","860.6867780366547","0","399","AB","trial","10","manual-tracking","56","153038","0.0-0.0-0.28","","",""
"","","","","","","","","","","","","","","feedback","","html-button-response","57","154540","0.0-0.0-1.28","null","<p>Well done.</p>","null"
"2003.1000000238419","156014.5","[442,442,442,442,442,442,447,463,487,515,543,568,593,614,633,646,662,673,682,691,700,711,723,739,756,780,798,820,833,845,855,867,877,888,906,919,934,951,966,982,997,1013,1030,1054,1075,1098,1116,1130,1146,1153,1161,1177,1206,1232,1250,1255,1256,1256,1256]","[466,466,466,466,466,466,466,466,466,466,466,466,468,470,471,471,471,471,471,469,469,468,467,466,465,463,462,460,459,459,459,459,459,459,460,461,462,464,466,468,469,470,471,471,471,469,469,469,469,469,469,470,472,473,473,473,473,473,473]","false","13.167000000000002","33","180","l","-300","991.9978857378132","0","399","AB","trial","4","manual-tracking","58","158040","0.0-0.0-0.29","","",""
"","","","","","","","","","","","","","","feedback","","html-button-response","59","159547","0.0-0.0-1.29","null","<p>Well done.</p>","null"
"2001.3000000715256","161231.89999997616","[440,440,445,458,476,487,498,507,516,527,542,556,570,583,600,613,626,644,649,666,678,688,702,715,727,739,754,767,779,792,805,822,836,852,870,889,909,933,960,1005,1026,1038,1049,1061,1072,1085,1099,1115,1134,1148,1163,1180,1200,1213,1218,1218,1218,1218,1218]","[473,473,473,473,473,473,473,473,473,473,473,471,470,470,470,470,469,467,467,467,467,468,469,470,470,470,471,471,472,472,472,472,470,469,468,468,467,466,466,465,463,462,461,460,460,460,460,460,460,460,461,463,464,464,463,463,463,463,463]","false","13.167000000000002","33","135","l","-300","922.0678423053083","0","399","AB","trial","3","manual-tracking","60","163256","0.0-0.0-0.30","","",""
"","","","","","","","","","","","","","","feedback","","html-button-response","61","164758","0.0-0.0-1.30","null","<p>Well done.</p>","null"
"2001.4000000953674","166381.29999995232","[432,432,433,440,446,458,470,488,510,534,560,595,614,631,640,649,658,666,678,688,702,718,742,763,785,805,825,847,873,892,908,922,930,937,943,954,966,978,992,1007,1030,1054,1082,1109,1121,1155,1170,1180,1183,1184,1184,1184,1184,1184,1184,1184,1184,1184,1184]","[455,455,455,455,455,455,455,455,456,458,459,461,461,462,463,464,466,467,469,471,472,473,473,473,473,473,473,473,473,473,472,472,472,472,472,472,472,474,479,483,484,483,482,482,484,488,488,487,486,485,485,485,485,485,485,485,485,485,485]","false","13.167000000000002","33","45","l","-300","1136.2832986536625","0","399","AB","trial","49","manual-tracking","62","168405","0.0-0.0-0.31","","",""
"","","","","","","","","","","","","","","feedback","","html-button-response","63","169908","0.0-0.0-1.31","null","<p>Well done.</p>","null"
"2001.1999999284744","171148.10000002384","[1045,1045,1036,1025,1012,996,972,951,927,904,882,865,843,832,818,808,798,785,771,756,738,722,705,690,675,664,655,648,640,629,614,586,556,516,489,465,426,400,376,355,339,323,303,294,294,294,294,294,294,294,294,294,294,285,265,249,219,183,164]","[466,466,466,466,466,466,466,466,466,466,466,465,464,463,463,463,463,463,463,465,467,469,471,472,473,473,473,473,473,473,472,472,472,477,479,482,483,484,484,484,484,486,492,496,496,496,496,496,496,496,496,496,496,494,492,488,483,480,480]","false","13.167000000000002","33","270","r","300","906.4330252308242","0","399","AB","trial","62","manual-tracking","64","173172","0.0-0.0-0.32","","",""
"","","","","","","","","","","","","","","feedback","","html-button-response","65","174673","0.0-0.0-1.32","null","<p>Well done.</p>","null"
"2000.6999999284744","176465.20000004768","[1046,1044,1040,1033,1025,1013,999,983,969,949,931,913,897,884,873,864,852,840,826,808,786,765,741,717,692,673,659,644,634,624,614,605,596,587,576,561,545,530,515,499,479,454,423,388,350,287,242,232,232,232,232,232,232,232,232,232,232,232,232]","[466,466,466,466,466,466,466,468,469,469,469,468,468,468,468,468,468,468,469,470,472,472,472,473,474,476,478,480,482,484,485,486,486,486,486,484,481,479,477,474,470,465,459,454,448,448,463,472,472,472,472,472,472,472,472,472,472,472,472]","false","13.167000000000002","33","45","r","300","1029.7249356300067","0","399","AB","trial","73","manual-tracking","66","178488","0.0-0.0-0.33","","",""
"","","","","","","","","","","","","","","feedback","","html-button-response","67","179992","0.0-0.0-1.33","null","<p>Well done.</p>","null"
"2001","181615","[1042,1042,1041,1033,1014,990,973,958,941,928,905,889,875,862,850,833,817,794,776,761,749,738,729,721,715,709,704,698,692,681,673,663,652,638,618,602,597,580,572,564,552,539,526,514,506,496,486,476,467,456,444,430,410,394,383,377,376,376,376]","[468,468,468,468,468,468,468,468,468,468,468,468,468,468,468,468,468,470,472,474,475,476,476,476,476,475,473,471,469,467,465,463,461,460,459,457,456,455,453,451,449,448,448,448,449,451,452,454,454,454,454,454,454,455,457,460,462,462,462]","false","13.167000000000002","33","270","r","300","1151.1080239371308","0","399","AB","trial","14","manual-tracking","68","183638","0.0-0.0-0.34","","",""
"","","","","","","","","","","","","","","feedback","","html-button-response","69","185140","0.0-0.0-1.34","null","<p>Well done.</p>","null"
"2001.7999999523163","187165.5","[1042,1042,1042,1039,1033,1023,1012,1001,981,965,945,925,901,887,873,860,849,839,830,820,810,794,778,759,740,724,713,704,694,685,667,654,643,630,619,607,593,581,571,560,551,543,531,519,506,483,467,447,434,420,408,396,387,380,377,375,375,375,375]","[466,466,466,466,466,466,466,466,466,466,466,468,469,469,469,469,469,469,469,469,469,469,469,469,469,469,469,469,469,469,469,471,474,477,480,482,485,486,486,486,484,482,479,477,476,475,475,474,474,474,474,474,474,474,474,474,472,472,472]","false","13.167000000000002","33","180","r","300","915.7184695849098","0","399","AB","trial","28","manual-tracking","70","189189","0.0-0.0-0.35","","",""
"","","","","","","","","","","","","","","feedback","","html-button-response","71","190691","0.0-0.0-1.35","null","<p>Well done.</p>","null"
"2001.6000000238419","192232.39999997616","[440,440,440,440,440,440,440,442,454,469,493,517,540,558,572,582,590,598,609,621,637,656,679,707,726,749,756,773,787,801,817,843,865,886,905,923,937,949,960,968,979,986,994,1006,1019,1033,1049,1066,1086,1105,1137,1157,1173,1188,1200,1215,1227,1235,1239]","[469,469,469,469,469,469,469,469,469,469,472,474,476,476,477,477,477,477,477,476,475,474,472,471,471,471,472,473,474,474,474,473,471,471,470,470,470,470,470,470,470,470,470,471,471,471,471,472,473,474,475,475,475,476,476,477,477,477,477]","false","13.167000000000002","33","90","l","-300","1119.6215146917914","0","399","AB","trial","2","manual-tracking","72","194256","0.0-0.0-0.36","","",""
"","","","","","","","","","","","","","","feedback","","html-button-response","73","195758","0.0-0.0-1.36","null","<p>Well done.</p>","null"
"2001.5999999046326","197165.70000004768","[1041,1033,1023,1016,1008,1002,995,985,974,962,944,931,917,902,886,872,859,849,837,824,803,789,774,758,744,727,714,703,691,678,666,650,635,616,595,577,562,541,526,515,507,498,490,480,472,461,445,426,420,408,400,393,385,374,359,348,335,322,308]","[465,465,465,465,465,465,465,465,465,465,465,465,465,466,467,467,467,467,467,467,467,467,467,467,467,467,467,467,467,466,466,466,468,470,473,473,473,474,475,476,476,477,478,478,479,479,480,481,482,482,482,482,482,482,483,484,485,485,485]","false","13.167000000000002","33","225","r","300","1065.1471567667343","0","399","AB","trial","77","manual-tracking","74","199189","0.0-0.0-0.37","","",""
"","","","","","","","","","","","","","","feedback","","html-button-response","75","200692","0.0-0.0-1.37","null","<p>Well done.</p>","null"
"2000.7999999523163","202265.20000004768","[1042,1042,1042,1040,1034,1025,1010,989,968,939,915,903,893,886,880,874,869,864,856,848,839,826,808,787,763,738,715,691,675,660,648,632,628,618,612,602,590,576,562,547,533,517,502,484,462,442,422,406,394,380,371,363,357,348,333,316,308,303,302]","[466,466,466,466,466,466,466,466,466,467,467,467,467,467,466,466,465,465,465,465,465,465,465,467,468,471,473,475,477,478,479,480,480,480,479,477,475,473,471,469,469,468,468,468,468,468,468,468,468,468,468,468,468,468,468,469,470,471,471]","false","13.167000000000002","33","135","r","300","833.3738106608907","0","399","AB","trial","43","manual-tracking","76","204288","0.0-0.0-0.38","","",""
"","","","","","","","","","","","","","","feedback","","html-button-response","77","205790","0.0-0.0-1.38","null","<p>Well done.</p>","null"
"2001.1999999284744","207700.10000002384","[1035,1032,1027,1017,1008,996,981,964,943,913,885,861,839,823,811,802,795,789,783,777,772,759,746,735,727,707,691,674,660,650,639,627,615,601,588,577,563,552,540,528,516,503,493,483,473,460,447,434,420,400,378,366,360,359,359,359,359,359,359]","[467,467,467,467,467,467,467,467,467,467,469,471,473,474,474,474,474,474,474,474,474,474,474,474,473,472,472,471,471,471,471,471,472,474,475,477,478,479,479,479,479,479,479,479,479,479,479,479,480,481,482,483,484,485,485,485,485,485,485]","false","13.167000000000002","33","270","r","300","1123.1377428338103","0","399","AB","trial","30","manual-tracking","78","209723","0.0-0.0-0.39","","",""
"","","","","","","","","","","","","","","feedback","","html-button-response","79","211225","0.0-0.0-1.39","null","<p>Well done.</p>","null"
"2000.6000000238419","213315.39999997616","[1036,1036,1036,1032,1024,1016,1008,998,986,963,954,931,915,898,885,871,855,836,816,796,777,758,741,729,719,711,703,697,688,679,669,652,639,623,612,602,590,580,569,554,544,533,520,509,494,479,465,451,434,419,404,393,386,382,379,378,377,376,376]","[472,472,472,472,472,472,472,472,472,472,472,475,475,475,475,475,475,476,478,479,479,479,479,479,479,479,478,477,477,476,475,474,473,471,469,468,466,466,466,466,467,469,470,471,472,472,472,472,473,475,477,478,478,478,478,478,478,477,477]","false","13.167000000000002","33","90","r","300","862.6132918384707","0","399","AB","trial","74","manual-tracking","80","215337","0.0-0.0-0.40","","",""
"","","","","","","","","","","","","","","feedback","","html-button-response","81","216841","0.0-0.0-1.40","null","<p>Well done.</p>","null"
"1049.4000000953674","218015.79999995232","[433,433,433,433,433,433,433,433,433,433,436,439,440,440,440,445,473,503,540,570,588,598,603,608,615,624,631,633,634,629]","[473,473,473,473,473,473,473,473,473,473,473,473,473,473,473,473,474,479,486,493,496,498,499,499,499,499,498,497,496,491]","true","13.167000000000002","33","135","l","-300","982.9640306999839","0","399","AB","trial","51","manual-tracking","82","219087","0.0-0.0-0.41","","",""
"","","","","","","","","","","","","","","feedback","","html-button-response","83","220587","0.0-0.0-1.41","null","<p>Keep your finger on the moving target</p>","null"
"2000.7999999523163","222082.70000004768","[422,422,424,428,433,437,441,450,461,478,513,539,569,584,597,606,613,619,625,631,639,649,664,678,693,710,727,743,759,773,785,803,815,826,842,855,871,889,911,944,966,980,989,997,1008,1022,1037,1053,1072,1083,1084,1084,1084,1084,1084,1084,1087,1119,1150]","[462,462,462,462,462,462,462,462,462,461,458,457,456,456,456,456,456,456,456,456,456,456,456,457,458,459,459,460,460,461,461,461,462,462,462,463,463,464,464,465,467,470,472,474,476,476,476,476,476,475,475,475,475,475,475,475,474,462,456]","false","13.167000000000002","33","225","l","-300","1074.4645352514324","0","399","AB","trial","37","manual-tracking","84","224105","0.0-0.0-0.42","","",""
"","","","","","","","","","","","","","","feedback","","html-button-response","85","225607","0.0-0.0-1.42","null","<p>Well done.</p>","null"
"2000.8999999761581","227649.5","[435,435,437,442,446,453,462,471,483,501,524,539,552,561,569,576,583,591,606,619,634,652,670,689,703,716,727,738,746,756,767,781,796,813,832,847,865,886,902,917,932,948,969,992,1019,1041,1066,1091,1120,1127,1127,1127,1127,1127,1127,1127,1130,1155,1215]","[471,471,471,471,471,471,471,471,471,471,470,469,467,467,467,467,467,467,469,470,471,472,472,472,472,471,471,471,471,471,470,470,470,470,470,470,470,470,470,470,470,471,473,475,478,481,483,485,485,485,485,485,485,485,485,485,484,474,459]","false","13.167000000000002","33","315","l","-300","962.9863198324991","0","399","AB","trial","55","manual-tracking","86","229671","0.0-0.0-0.43","","",""
"","","","","","","","","","","","","","","feedback","","html-button-response","87","231175","0.0-0.0-1.43","null","<p>Well done.</p>","null"
"281.7000000476837","232349.79999995232","[1055,1055,1055,1055,1058,1063,1074,1088]","[479,479,479,479,479,479,479,479]","true","13.167000000000002","33","135","r","300","924.896576331489","0","399","AB","trial","27","manual-tracking","88","232653","0.0-0.0-0.44","","",""
"","","","","","","","","","","","","","","feedback","","html-button-response","89","234154","0.0-0.0-1.44","null","<p>Keep your finger on the moving target</p>","null"
"2000.8000000715256","236716.39999997616","[1038,1031,1022,1012,1004,997,990,981,971,961,949,936,919,902,885,872,859,843,838,825,814,805,793,779,763,744,719,699,681,662,646,634,621,612,605,596,591,586,582,577,570,561,549,538,516,500,489,478,469,461,454,449,440,432,423,423,411,379,327]","[468,468,468,469,469,469,469,469,469,469,468,467,467,467,467,467,465,462,461,461,461,461,461,461,462,463,464,465,465,465,465,465,465,465,465,465,465,465,465,464,464,464,464,464,464,464,464,464,462,461,460,460,460,461,462,462,462,463,466]","false","13.167000000000002","33","135","r","300","1054.908138009052","0","399","AB","trial","11","manual-tracking","90","238738","0.0-0.0-0.45","","",""
"","","","","","","","","","","","","","","feedback","","html-button-response","91","240240","0.0-0.0-1.45","null","<p>Well done.</p>","null"
"2001.6000000238419","242217.10000002384","[1047,1047,1044,1041,1039,1035,1031,1019,1005,986,961,930,911,895,882,864,854,842,830,818,804,790,775,758,736,719,702,687,673,659,644,628,613,594,579,568,552,543,532,526,501,484,465,451,436,422,411,400,390,381,369,357,346,337,330,325,321,319,318]","[473,473,473,473,473,473,473,473,473,473,473,473,473,472,471,470,470,469,469,468,468,467,466,465,463,461,460,459,459,459,459,460,462,465,467,469,470,470,470,470,472,473,475,476,478,480,481,481,481,480,478,477,476,475,474,474,474,473,471]","false","13.167000000000002","33","180","r","300","962.8235731513944","0","399","AB","trial","60","manual-tracking","92","244239","0.0-0.0-0.46","","",""
"","","","","","","","","","","","","","","feedback","","html-button-response","93","245742","0.0-0.0-1.46","null","<p>Well done.</p>","null"
"2000.3999999761581","247066.70000004768","[1052,1049,1044,1039,1033,1026,1020,1014,1003,990,973,951,929,911,890,867,854,842,831,822,809,794,774,758,741,726,711,697,684,673,660,648,638,629,614,602,588,573,560,537,524,515,512,509,508,508,508,508,508,478,472,448,433,416,398,383,372,360,345]","[471,471,471,471,471,471,471,471,471,471,471,471,471,471,471,471,471,471,471,471,470,470,469,469,469,469,468,468,468,468,468,468,468,468,468,469,471,472,474,477,478,479,479,479,478,478,478,478,478,473,472,467,464,460,457,454,453,453,453]","false","13.167000000000002","33","180","r","300","802.5943851372547","0","399","AB","trial","44","manual-tracking","94","249088","0.0-0.0-0.47","","",""
"","","","","","","","","","","","","","","feedback","","html-button-response","95","250589","0.0-0.0-1.47","null","<p>Well done.</p>","null"
"2001.5","252384.10000002384","[438,444,449,457,468,482,498,512,525,539,555,573,602,617,629,640,651,660,668,677,688,699,713,731,748,771,787,803,818,834,847,869,882,897,913,926,939,955,966,978,987,995,1001,1014,1025,1040,1058,1080,1101,1122,1141,1182,1197,1208,1212,1212,1212,1212,1212]","[467,467,467,467,467,467,467,467,467,467,467,467,466,466,466,466,466,466,465,465,464,464,463,462,462,461,461,461,461,462,462,462,462,462,461,461,460,459,459,458,458,458,458,458,458,462,466,470,473,475,476,477,477,474,471,470,470,470,470]","false","13.167000000000002","33","0","l","-300","894.1094570206388","0","399","AB","trial","0","manual-tracking","96","254406","0.0-0.0-0.48","","",""
"","","","","","","","","","","","","","","feedback","","html-button-response","97","255908","0.0-0.0-1.48","null","<p>Well done.</p>","null"
"2001.3999999761581","257750.10000002384","[443,446,454,465,477,491,505,518,532,548,569,585,599,611,625,637,649,662,680,690,695,710,722,732,744,756,774,790,812,828,841,853,864,873,883,896,915,934,954,976,999,1022,1040,1057,1071,1081,1097,1111,1123,1135,1148,1166,1193,1209,1213,1213,1213,1213,1213]","[466,466,466,466,466,466,466,466,466,466,465,465,465,465,465,465,465,465,465,465,465,465,465,465,465,465,466,468,470,470,470,469,466,464,462,461,461,464,469,475,479,481,482,482,482,481,480,479,479,479,480,480,478,474,472,472,472,472,472]","false","13.167000000000002","33","180","l","-300","1166.671767021311","0","399","AB","trial","36","manual-tracking","98","259772","0.0-0.0-0.49","","",""
"","","","","","","","","","","","","","","feedback","","html-button-response","99","261274","0.0-0.0-1.49","null","<p>Well done.</p>","null"
"2001","263283.60000002384","[1045,1041,1034,1026,1017,1006,995,987,977,968,957,946,934,919,897,863,841,820,801,784,772,759,753,736,728,720,712,703,691,678,662,646,628,613,600,586,570,553,535,518,487,469,455,443,433,420,406,395,386,377,375,374,362,346,326,315,310,308,308]","[473,473,473,473,473,473,473,473,473,473,473,473,473,473,473,473,472,471,470,470,470,470,470,470,470,470,471,471,471,472,472,473,473,473,473,473,473,475,475,476,477,477,477,476,475,474,474,473,471,469,468,467,464,460,454,451,449,448,448]","false","13.167000000000002","33","225","r","300","1162.7366249429506","0","399","AB","trial","29","manual-tracking","100","265305","0.0-0.0-0.50","","",""
"","","","","","","","","","","","","","","feedback","","html-button-response","101","266811","0.0-0.0-1.50","null","<p>Well done.</p>","null"
"2001.1999999284744","268383.7000000477","[1033,1029,1025,1021,1017,1010,1003,991,975,954,927,899,872,850,831,812,793,782,773,763,752,739,725,706,689,670,652,631,609,587,564,544,523,508,499,490,480,470,459,449,435,418,405,390,377,361,349,328,317,305,300,298,298,298,298,286,268,249,230]","[470,470,470,470,470,470,470,470,470,470,473,477,479,481,481,481,481,481,480,479,477,476,475,474,473,472,470,469,468,468,468,468,468,469,471,473,475,477,479,481,482,482,482,482,481,479,478,476,475,474,473,473,473,473,473,474,475,476,477]","false","13.167000000000002","33","315","r","300","943.2725082231258","0","399","AB","trial","47","manual-tracking","102","270405","0.0-0.0-0.51","","",""
"","","","","","","","","","","","","","","feedback","","html-button-response","103","271907","0.0-0.0-1.51","null","<p>Well done.</p>","null"
"2001.5999999046326","273517.2000000477","[1037,1037,1035,1030,1026,1022,1016,1005,989,946,912,881,855,833,820,808,798,789,780,767,755,741,721,703,687,672,661,651,640,628,613,581,559,540,519,499,480,462,446,427,412,396,380,365,353,342,332,322,311,298,285,274,267,263,262,262,262,262,262]","[454,454,454,454,454,454,454,454,454,460,466,469,471,471,471,469,467,466,465,463,462,462,461,461,460,460,460,460,460,459,459,459,459,458,457,457,457,456,455,454,454,454,454,454,455,457,457,458,458,458,458,459,460,460,460,460,460,460,460]","false","13.167000000000002","33","0","r","300","847.1071086634706","0","399","AB","trial","8","manual-tracking","104","275539","0.0-0.0-0.52","","",""
"","","","","","","","","","","","","","","feedback","","html-button-response","105","277040","0.0-0.0-1.52","null","<p>Well done.</p>","null"
"2001.2000000476837","278367.7999999523","[1049,1049,1047,1037,1027,1014,1000,986,972,957,942,926,907,887,876,866,854,842,828,816,804,792,780,767,750,733,714,697,679,658,643,630,617,605,592,583,570,558,539,519,505,491,474,457,441,428,417,404,395,387,378,369,366,365,365,365,363,342,318]","[465,465,465,465,466,467,468,468,468,468,467,466,464,462,460,459,458,458,457,457,457,457,457,457,459,461,463,464,465,465,466,466,466,466,466,466,467,467,467,469,471,472,474,476,477,477,478,479,479,479,479,479,479,479,479,479,479,479,479]","false","13.167000000000002","33","225","r","300","1049.8126047021296","0","399","AB","trial","45","manual-tracking","106","280389","0.0-0.0-0.53","","",""
"","","","","","","","","","","","","","","feedback","","html-button-response","107","281890","0.0-0.0-1.53","null","<p>Well done.</p>","null"
"2001.7999999523163","283301.10000002384","[1048,1048,1045,1037,1022,1006,990,961,934,909,882,860,851,845,841,836,819,800,779,762,747,734,717,705,692,676,665,651,637,622,606,591,576,560,540,523,504,476,459,441,421,396,367,348,334,323,311,303,296,292,290,289,289,289,289,289,289,289,289]","[467,467,467,467,467,469,471,474,475,478,480,481,481,481,481,481,481,479,476,474,474,474,474,476,477,479,480,481,481,482,483,483,484,484,484,483,481,475,472,468,466,466,467,471,473,475,477,479,482,483,484,484,484,484,484,484,484,484,484]","false","13.167000000000002","33","45","r","300","888.2146197931332","0","399","AB","trial","25","manual-tracking","108","285323","0.0-0.0-0.54","","",""
"","","","","","","","","","","","","","","feedback","","html-button-response","109","286825","0.0-0.0-1.54","null","<p>Well done.</p>","null"
"2001.0999999046326","289117.7000000477","[432,439,446,451,457,465,474,488,504,521,538,554,571,592,604,615,624,634,653,669,686,702,717,728,741,751,760,769,783,799,819,843,863,883,896,907,917,926,935,956,969,986,1008,1029,1044,1062,1080,1104,1138,1171,1189,1198,1200,1200,1200,1200,1200,1200,1200]","[470,470,470,470,470,470,470,470,469,469,469,469,469,469,469,469,469,470,471,470,467,465,464,464,464,464,465,468,470,470,470,470,470,470,471,472,474,475,475,475,475,472,467,464,463,463,463,463,466,471,475,476,476,476,476,476,476,476,476]","false","13.167000000000002","33","180","l","-300","869.8294729511074","0","399","AB","trial","68","manual-tracking","110","291138","0.0-0.0-0.55","","",""
"","","","","","","","","","","","","","","feedback","","html-button-response","111","292643","0.0-0.0-1.55","null","<p>Well done.</p>","null"
"2001.5999999046326","293917.7000000477","[1051,1051,1051,1051,1049,1037,1017,994,967,938,898,876,859,845,836,827,815,802,787,769,749,729,703,684,665,647,631,619,605,591,578,562,540,527,515,503,493,483,473,473,473,473,473,473,473,473,473,473,473,473,473,473,473,446,415,382,349,306]","[469,469,469,469,469,469,469,469,469,469,469,470,471,471,471,471,471,471,470,469,468,466,464,464,464,464,464,463,462,462,462,462,462,463,464,464,465,465,466,466,466,466,466,466,466,466,466,466,466,466,466,466,466,466,466,466,467,470]","false","13.167000000000002","33","90","r","300","972.6208252859199","0","399","AB","trial","58","manual-tracking","112","295939","0.0-0.0-0.56","","",""
"","","","","","","","","","","","","","","feedback","","html-button-response","113","297442","0.0-0.0-1.56","null","<p>Well done.</p>","null"
"2001.5","299400.60000002384","[449,455,464,477,485,495,505,517,532,549,570,589,610,623,638,656,667,677,689,702,717,735,750,764,779,792,806,819,831,850,860,871,884,893,904,915,928,947,963,980,995,1011,1028,1044,1058,1071,1084,1102,1112,1123,1133,1141,1149,1155,1161,1169,1184,1198,1200]","[473,473,473,473,473,473,473,473,473,472,470,467,467,467,467,467,467,468,470,470,470,470,470,470,471,471,471,472,472,471,471,471,471,471,472,472,473,474,474,475,475,476,477,477,477,477,476,473,472,471,469,469,469,469,468,468,468,468,468]","false","13.167000000000002","33","0","l","-300","1088.447150972238","0","399","AB","trial","32","manual-tracking","114","301422","0.0-0.0-0.57","","",""
"","","","","","","","","","","","","","","feedback","","html-button-response","115","302926","0.0-0.0-1.57","null","<p>Well done.</p>","null"
"2001.2999999523163","304334.5","[1037,1037,1035,1027,1014,999,983,969,951,930,915,894,877,860,843,825,807,783,765,747,731,708,693,677,663,649,632,619,608,593,578,564,553,539,528,515,504,490,476,453,439,424,412,403,392,384,373,363,351,340,330,321,312,298,289,281,276,273,272]","[468,468,468,468,468,468,468,468,468,468,468,467,466,464,463,462,462,462,462,462,464,466,468,470,472,474,476,478,479,480,481,482,482,483,483,484,484,484,485,486,487,488,491,492,494,494,494,494,494,492,490,488,486,482,479,476,475,474,474]","false","13.167000000000002","33","90","r","300","881.7374914695249","0","399","AB","trial","42","manual-tracking","116","306355","0.0-0.0-0.58","","",""
"","","","","","","","","","","","","","","feedback","","html-button-response","117","307860","0.0-0.0-1.58","null","<p>Well done.</p>","null"
"2001.7999999523163","309468.10000002384","[437,437,439,444,452,463,474,488,502,514,525,536,547,561,573,585,598,607,617,630,643,658,673,690,711,738,759,785,797,809,822,833,845,862,877,889,902,908,925,939,954,973,992,1012,1024,1036,1051,1066,1077,1090,1103,1125,1158,1172,1180,1183,1183,1183,1183]","[464,464,464,464,464,464,464,464,465,467,469,471,473,474,474,474,474,475,475,475,475,474,474,474,474,473,472,471,470,470,469,469,469,469,469,469,469,469,472,474,477,479,480,481,481,481,481,481,481,481,481,477,473,472,471,470,470,470,470]","false","13.167000000000002","33","90","l","-300","989.2230251638748","0","399","AB","trial","50","manual-tracking","118","311489","0.0-0.0-0.59","","",""
"","","","","","","","","","","","","","","feedback","","html-button-response","119","312992","0.0-0.0-1.59","null","<p>Well done.</p>","null"
"2001.4000000953674","314684.7999999523","[442,442,444,450,459,469,479,495,523,546,569,592,607,619,632,644,657,668,681,695,711,726,741,756,772,787,803,822,845,872,892,911,934,949,963,977,992,1003,1016,1025,1038,1052,1067,1085,1104,1122,1140,1151,1157,1161,1164,1166,1167,1167,1167,1167,1167,1167,1167]","[464,464,464,464,464,464,464,464,464,468,473,478,480,481,481,481,480,479,478,477,475,474,472,470,468,465,464,462,462,462,462,462,462,462,461,461,460,459,457,457,457,458,460,463,464,464,465,466,468,470,472,472,472,472,472,472,472,472,472]","false","13.167000000000002","33","45","l","-300","1069.6761113294529","0","399","AB","trial","1","manual-tracking","120","316706","0.0-0.0-0.60","","",""
"","","","","","","","","","","","","","","feedback","","html-button-response","121","318210","0.0-0.0-1.60","null","<p>Well done.</p>","null"
"2001.1999999284744","320219.10000002384","[439,447,460,475,493,512,533,550,567,583,600,617,634,650,666,679,690,701,713,719,726,732,739,749,762,778,798,816,835,854,870,883,894,908,931,950,968,981,992,1001,1010,1028,1040,1056,1070,1083,1096,1111,1123,1137,1153,1173,1192,1200,1203,1204,1205,1205,1205]","[474,474,474,474,474,474,474,474,476,478,479,479,480,480,480,480,480,480,480,480,479,478,477,475,472,468,464,461,459,458,458,458,458,458,461,463,466,469,473,476,477,478,478,477,475,474,473,472,472,472,472,472,472,471,469,469,469,469,469]","false","13.167000000000002","33","270","l","-300","802.4975973727429","0","399","AB","trial","70","manual-tracking","122","322239","0.0-0.0-0.61","","",""
"","","","","","","","","","","","","","","feedback","","html-button-response","123","323743","0.0-0.0-1.61","null","<p>Well done.</p>","null"
"2001.6000000238419","326152.10000002384","[1042,1042,1038,1033,1026,1019,1012,999,984,946,926,908,894,879,864,848,832,814,793,771,745,725,706,688,671,655,644,632,623,612,605,598,590,578,562,541,521,484,461,442,428,415,404,391,379,367,352,340,329,316,306,299,294,291,288,286,285,285,285]","[466,466,466,466,466,466,466,466,466,467,469,469,469,469,469,469,469,469,468,467,467,466,466,465,465,465,465,465,465,465,465,465,465,465,465,466,467,467,468,469,469,469,469,471,473,475,476,476,476,477,477,477,478,478,479,480,480,480,480]","false","13.167000000000002","33","270","r","300","1129.3883190435508","0","399","AB","trial","46","manual-tracking","124","328173","0.0-0.0-0.62","","",""
"","","","","","","","","","","","","","","feedback","","html-button-response","125","329674","0.0-0.0-1.62","null","<p>Well done.</p>","null"
"2001.3999999761581","330852","[440,440,445,456,472,489,507,521,534,546,555,559,561,563,567,577,602,625,647,667,684,696,704,711,717,725,735,748,765,784,804,822,837,855,868,881,892,905,916,930,950,967,980,994,1008,1024,1038,1053,1065,1081,1100,1117,1127,1134,1135,1135,1135,1135,1135]","[473,473,473,473,473,473,473,473,472,468,465,464,464,463,461,457,454,454,454,454,454,454,454,454,454,454,454,454,454,454,454,454,454,455,455,455,455,456,457,457,457,458,460,464,467,469,469,469,469,469,467,464,463,462,462,462,462,462,462]","false","13.167000000000002","33","90","l","-300","932.3675401050607","0","399","AB","trial","66","manual-tracking","126","332872","0.0-0.0-0.63","","",""
"","","","","","","","","","","","","","","feedback","","html-button-response","127","334375","0.0-0.0-1.63","null","<p>Well done.</p>","null"
"2002","336085.2999999523","[442,442,453,473,500,529,558,582,606,629,650,672,685,695,702,706,710,711,712,712,714,723,734,746,761,778,796,813,833,846,859,872,884,898,910,923,936,950,959,968,979,994,1010,1028,1049,1084,1103,1119,1136,1155,1168,1173,1175,1175,1175,1175,1175,1175,1175]","[468,468,468,468,468,468,468,468,468,467,464,461,460,460,460,460,461,462,462,463,463,463,463,463,463,463,463,463,464,465,465,465,465,465,465,465,465,465,467,469,469,469,469,467,465,463,463,463,463,463,464,465,465,465,465,465,465,465,465]","false","13.167000000000002","33","270","l","-300","1180.1518668812746","0","399","AB","trial","6","manual-tracking","128","338106","0.0-0.0-0.64","","",""
"","","","","","","","","","","","","","","feedback","","html-button-response","129","339608","0.0-0.0-1.64","null","<p>Well done.</p>","null"
"2001.4000000953674","341235.2999999523","[440,440,441,447,456,466,480,494,506,527,541,556,571,586,597,608,617,629,640,651,660,669,682,694,704,714,725,739,749,758,770,780,793,808,827,856,885,899,912,925,947,971,988,1000,1016,1028,1041,1052,1059,1069,1079,1092,1102,1110,1112,1112,1112,1112,1112]","[466,466,466,466,466,466,466,466,466,471,475,476,476,476,475,475,475,474,474,474,473,473,473,473,473,473,473,473,473,472,471,470,470,470,470,470,472,473,475,475,472,467,467,467,472,474,475,475,474,471,468,467,466,466,466,466,466,466,466]","false","13.167000000000002","33","0","l","-300","863.3417669780156","0","399","AB","trial","16","manual-tracking","130","343255","0.0-0.0-0.65","","",""
"","","","","","","","","","","","","","","feedback","","html-button-response","131","344757","0.0-0.0-1.65","null","<p>Well done.</p>","null"
"2001.3000000715256","346835.89999997616","[431,431,432,435,447,460,477,503,530,558,584,606,633,643,647,658,665,671,677,684,691,700,709,721,733,747,763,780,797,812,825,843,855,870,881,891,900,907,918,934,952,970,990,1010,1030,1049,1063,1074,1085,1095,1109,1118,1131,1147,1162,1173,1177,1177,1177]","[470,470,470,470,470,470,470,470,470,467,464,461,461,461,461,462,462,462,463,463,464,465,465,466,466,466,466,467,468,469,469,470,470,470,470,470,470,470,470,470,469,469,469,469,469,470,470,471,471,471,470,470,470,470,471,472,473,473,473]","false","13.167000000000002","33","225","l","-300","944.3431572144934","0","399","AB","trial","53","manual-tracking","132","348856","0.0-0.0-0.66","","",""
"","","","","","","","","","","","","","","feedback","","html-button-response","133","350358","0.0-0.0-1.66","null","<p>Well done.</p>","null"
"2001.1000000238419","352335.5","[1041,1041,1041,1041,1041,1041,1041,1033,1026,989,973,960,948,938,926,914,901,885,866,840,819,798,781,765,750,736,719,702,679,661,645,632,618,607,591,580,564,551,534,516,501,487,474,461,454,444,428,410,390,371,356,356,347,325,308,292,282,269,252]","[463,463,463,463,463,463,463,463,463,461,459,457,457,457,457,458,458,458,458,458,458,459,459,459,459,460,461,463,465,467,468,468,468,468,468,467,465,463,461,458,456,454,452,451,451,450,449,448,447,447,448,448,450,453,455,458,460,461,462]","false","13.167000000000002","33","0","r","300","1070.3777859015054","0","399","AB","trial","24","manual-tracking","134","354355","0.0-0.0-0.67","","",""
"","","","","","","","","","","","","","","feedback","","html-button-response","135","355857","0.0-0.0-1.67","null","<p>Well done.</p>","null"
"2001.8999999761581","357152.5","[444,444,447,452,459,465,474,489,513,569,596,618,634,644,652,657,658,659,660,664,674,687,701,716,731,751,774,814,834,850,857,881,900,915,932,947,966,984,1001,1014,1023,1030,1039,1057,1079,1099,1112,1124,1142,1152,1161,1174,1186,1194,1198,1199,1199,1199,1199]","[473,473,473,473,473,473,473,470,465,457,456,456,456,457,459,460,461,461,461,461,461,461,461,461,462,462,463,465,467,470,471,473,473,473,473,473,473,473,472,471,470,469,468,467,465,465,467,469,470,470,470,470,470,470,470,470,470,470,470]","false","13.167000000000002","33","225","l","-300","1017.0736665235225","0","399","AB","trial","5","manual-tracking","136","359173","0.0-0.0-0.68","","",""
"","","","","","","","","","","","","","","feedback","","html-button-response","137","360677","0.0-0.0-1.68","null","<p>Well done.</p>","null"
"2000.6999999284744","362019.7000000477","[1034,1034,1032,1025,1016,1005,994,985,973,954,944,934,925,916,903,887,868,848,820,800,780,760,741,725,708,693,678,663,650,637,623,609,589,576,564,548,536,524,509,496,482,465,447,429,411,390,374,362,348,341,335,324,307,290,279,276,251,227,206]","[468,468,468,468,468,468,468,468,468,468,468,468,468,468,468,468,468,468,468,468,468,469,469,469,469,469,469,470,470,470,470,470,470,470,470,470,470,471,473,474,476,478,480,481,482,484,485,485,485,484,483,482,482,482,484,484,485,485,485]","false","13.167000000000002","33","225","r","300","1030.193239615856","0","399","AB","trial","13","manual-tracking","138","364039","0.0-0.0-0.69","","",""
"","","","","","","","","","","","","","","feedback","","html-button-response","139","365540","0.0-0.0-1.69","null","<p>Well done.</p>","null"
"2001","366970","[1034,1032,1027,1023,1019,1018,1018,1018,1011,1001,987,975,965,957,947,924,908,890,870,851,833,817,801,784,772,757,742,727,712,697,682,667,655,640,631,617,608,598,589,578,565,551,534,520,510,502,496,488,476,459,440,414,370,359,359,359,359,359,359]","[465,465,465,465,465,465,465,465,465,465,464,463,462,462,462,463,465,467,468,468,468,468,467,465,465,465,465,467,469,470,472,473,473,473,473,470,468,466,464,461,459,458,458,458,459,460,461,461,461,463,466,469,474,482,482,482,482,482,482]","false","13.167000000000002","33","180","r","300","1128.7396963168242","0","399","AB","trial","76","manual-tracking","140","368989","0.0-0.0-0.70","","",""
"","","","","","","","","","","","","","","feedback","","html-button-response","141","370491","0.0-0.0-1.70","null","<p>Well done.</p>","null"
"2001.9000000953674","373136.2999999523","[436,439,451,467,476,485,495,505,515,525,534,545,553,562,575,591,607,624,642,653,659,666,673,680,688,696,705,713,724,737,752,769,789,809,827,844,862,888,909,933,955,984,1012,1034,1064,1076,1089,1100,1112,1125,1138,1145,1145,1145,1145,1145,1145,1145,1145]","[466,466,466,466,466,466,466,466,466,466,466,466,466,468,469,469,469,469,468,467,467,467,467,467,467,468,469,471,473,473,474,474,474,474,474,474,474,474,474,473,470,464,458,455,455,455,455,455,455,455,455,455,455,455,455,455,455,455,455]","false","13.167000000000002","33","270","l","-300","1190.387719360965","0","399","AB","trial","22","manual-tracking","142","375156","0.0-0.0-0.71","","",""
"","","","","","","","","","","","","","","feedback","","html-button-response","143","376659","0.0-0.0-1.71","null","<p>Well done.</p>","null"
"2001.3000000715256","379520.2999999523","[1047,1037,1031,1027,1024,1019,1013,1006,997,981,967,953,937,924,912,899,884,857,842,827,811,796,780,767,754,742,731,716,704,692,678,664,646,627,608,591,572,558,544,530,516,503,489,479,458,447,434,424,414,409,406,406,406,406,406,406,406,406,406]","[467,467,467,467,467,467,467,467,467,467,467,467,467,467,466,466,465,465,465,465,465,465,465,465,464,464,463,463,462,462,461,461,461,462,464,465,466,466,466,466,468,468,470,471,473,475,476,477,477,477,477,477,477,477,477,477,477,477,477]","false","13.167000000000002","33","315","r","300","1169.2461648774965","0","399","AB","trial","63","manual-tracking","144","381539","0.0-0.0-0.72","","",""
"","","","","","","","","","","","","","","feedback","","html-button-response","145","383042","0.0-0.0-1.72","null","<p>Well done.</p>","null"
"2001.7999999523163","385087.5","[1043,1036,1028,1020,1014,1009,1004,995,982,963,938,910,884,849,841,825,805,789,773,755,739,723,703,686,670,657,644,635,624,614,604,589,577,562,544,525,503,479,456,429,409,395,382,370,359,349,336,325,312,299,292,288,286,286,286,286,286,286,286]","[462,462,462,462,462,462,462,462,462,462,463,464,464,464,464,463,463,463,463,463,464,464,464,464,464,464,464,464,464,464,464,464,465,466,467,469,471,473,475,476,478,480,481,482,482,482,481,478,475,472,469,465,463,463,463,463,463,463,463]","false","13.167000000000002","33","315","r","300","1024.6382148015198","0","399","AB","trial","15","manual-tracking","146","387107","0.0-0.0-0.73","","",""
"","","","","","","","","","","","","","","feedback","","html-button-response","147","388609","0.0-0.0-1.73","null","<p>Well done.</p>","null"
"2001.6000000238419","390170.60000002384","[1052,1047,1034,1020,1006,989,977,964,946,929,912,896,879,866,847,836,827,820,812,804,796,786,775,762,745,730,712,693,673,652,634,620,605,592,582,571,556,543,532,523,512,495,481,468,455,442,431,421,409,393,375,359,355,353,353,353,353,353,353]","[466,466,466,466,466,466,466,466,466,466,467,470,472,474,474,474,474,473,472,470,469,468,466,465,462,459,456,455,455,455,455,456,458,460,462,465,468,469,470,470,470,470,470,470,470,470,470,470,470,470,469,468,466,464,464,464,464,464,464]","false","13.167000000000002","33","180","r","300","989.5724151973023","0","399","AB","trial","12","manual-tracking","148","392190","0.0-0.0-0.74","","",""
"","","","","","","","","","","","","","","feedback","","html-button-response","149","393691","0.0-0.0-1.74","null","<p>Well done.</p>","null"
"2001.1000000238419","395054","[434,447,457,465,471,479,489,499,509,519,533,549,566,590,607,625,645,659,668,678,686,693,703,712,721,730,739,748,763,778,804,826,846,863,881,897,909,918,925,933,946,959,974,994,1011,1022,1061,1082,1093,1093,1093,1093,1093,1093,1093,1093,1126,1172,1230]","[464,464,464,464,464,464,464,464,464,464,465,465,465,465,466,466,466,466,466,465,465,465,465,465,465,465,465,465,464,462,460,459,457,456,455,455,455,454,454,456,459,460,460,455,453,453,454,458,461,461,461,461,461,461,461,461,451,445,443]","false","13.167000000000002","33","270","l","-300","987.4303748627818","0","399","AB","trial","54","manual-tracking","150","397073","0.0-0.0-0.75","","",""
"","","","","","","","","","","","","","","feedback","","html-button-response","151","398574","0.0-0.0-1.75","null","<p>Well done.</p>","null"
"2000.7999999523163","400354.5","[438,438,440,446,453,461,471,490,511,529,553,566,579,595,616,638,659,668,674,679,686,695,704,714,725,742,760,778,796,812,828,842,861,872,879,886,894,903,912,925,939,955,977,992,1004,1017,1031,1046,1064,1086,1111,1145,1158,1164,1166,1167,1167,1167,1167]","[468,468,468,468,468,468,468,468,468,468,470,472,474,476,477,477,477,477,478,478,478,478,477,476,475,474,473,472,472,471,469,467,464,463,463,463,463,463,465,469,472,474,474,474,474,474,474,474,472,469,467,465,464,463,462,461,460,460,460]","false","13.167000000000002","33","180","l","-300","806.4716039513742","0","399","AB","trial","20","manual-tracking","152","402373","0.0-0.0-0.76","","",""
"","","","","","","","","","","","","","","feedback","","html-button-response","153","403875","0.0-0.0-1.76","null","<p>Well done.</p>","null"
"2001.2000000476837","405303.7999999523","[429,431,435,445,459,471,480,492,502,514,524,533,543,559,570,591,602,617,636,652,667,683,698,707,714,724,736,751,768,788,811,838,856,870,887,897,909,924,942,967,994,1022,1048,1059,1059,1059,1059,1059,1059,1059,1059,1063,1081,1109,1172,1235,1315,1346,1365]","[465,465,465,465,465,465,465,465,465,465,466,468,470,472,473,473,473,473,472,470,469,467,466,466,466,466,466,466,466,466,467,467,467,468,470,470,471,471,471,472,474,476,477,477,477,477,477,477,477,477,477,473,469,465,463,463,468,472,474]","false","13.167000000000002","33","135","l","-300","997.1182949772207","0","399","AB","trial","35","manual-tracking","154","407322","0.0-0.0-0.77","","",""
"","","","","","","","","","","","","","","feedback","","html-button-response","155","408824","0.0-0.0-1.77","null","<p>Well done.</p>","null"
"2001","410437.10000002384","[441,441,444,454,464,475,491,507,525,555,573,593,606,618,628,636,644,650,655,660,667,682,697,715,733,752,771,786,797,807,818,834,847,860,875,889,905,922,940,954,969,984,999,1014,1025,1039,1051,1065,1078,1092,1112,1126,1132,1135,1136,1136,1136,1136,1136]","[464,464,464,464,464,464,464,464,463,460,458,456,454,453,453,453,453,453,454,457,459,462,464,466,468,470,472,474,476,478,480,483,483,483,483,483,482,480,477,475,472,470,467,464,463,460,458,456,456,456,456,456,456,456,456,456,456,456,456]","false","13.167000000000002","33","45","l","-300","987.7723173087977","0","399","AB","trial","17","manual-tracking","156","412455","0.0-0.0-0.78","","",""
"","","","","","","","","","","","","","","feedback","","html-button-response","157","413957","0.0-0.0-1.78","null","<p>Well done.</p>","null"
"2000.7999999523163","415237.60000002384","[1044,1044,1044,1041,1035,1029,1023,1018,1011,990,966,933,892,865,842,826,812,802,795,790,784,778,770,762,752,742,732,718,707,696,682,668,660,651,642,632,620,606,588,575,559,541,522,508,494,481,465,447,433,420,409,400,392,388,387,387,387,387,379]","[461,461,461,461,461,461,461,461,461,460,460,462,465,466,466,466,466,465,464,462,461,460,460,460,460,459,459,459,459,459,459,459,458,457,455,455,455,455,456,456,456,456,456,456,454,452,451,449,448,446,444,441,438,437,437,437,437,437,437]","false","13.167000000000002","33","135","r","300","1170.2794024545387","0","399","AB","trial","75","manual-tracking","158","417255","0.0-0.0-0.79","","",""
"","","","","","","","","","","","","","","feedback","","html-button-response","159","418757","0.0-0.0-1.79","null","<p>Well done.</p>","null"
