"dur","start_time","mouse_trace_x","mouse_trace_y","interruptedResponse","pixperrefresh","refreshRate","angle","side","start_position","splitTime","fixTime","speed","subjectID","test_part","trialID","trial_type","trial_index","time_elapsed","internal_node_id","rt","stimulus","response"
"2002.0999999046326","6673","[1044,1044,1044,1041,1039,1036,1031,1023,1007,994,973,958,943,926,911,900,891,883,875,862,849,830,801,771,734,706,674,663,652,640,627,616,603,592,580,563,552,541,528,518,508,497,488,471,465,445,428,414,398,385,373,360,352,344,335,323,311,299,291]","[465,465,465,465,465,465,465,467,470,471,472,472,473,473,473,473,470,467,466,466,466,466,466,469,473,473,471,468,467,467,467,468,470,470,471,472,473,473,473,473,471,469,467,462,461,461,461,463,465,466,466,466,466,466,466,466,464,463,461]","false","13.167000000000002","33","45","r","300","1118.1524209853567","0","399","AA","trial","41","manual-tracking","0","8619","0.0-0.0-0.0","","",""
"","","","","","","","","","","","","","","feedback","","html-button-response","1","10126","0.0-0.0-1.0","null","<p>Well done.</p>","null"
"2001.3999999761581","12172.199999928474","[1038,1038,1038,1037,1031,1017,993,973,939,917,898,882,868,858,849,844,838,831,822,810,799,788,775,762,751,736,720,702,671,649,627,602,585,571,560,553,548,544,540,535,528,519,509,497,486,475,462,445,435,422,413,404,395,385,374,365,357,349,335]","[471,471,471,471,471,471,471,471,471,469,469,469,469,469,469,469,469,469,469,469,469,469,468,467,466,466,466,466,466,466,466,468,469,470,470,470,470,470,469,469,469,469,469,470,470,470,470,470,470,470,470,470,470,470,470,470,470,470,471]","false","13.167000000000002","33","225","r","300","946.0272655504002","0","399","AA","trial","61","manual-tracking","2","14117","0.0-0.0-0.1","","",""
"","","","","","","","","","","","","","","feedback","","html-button-response","3","15619","0.0-0.0-1.1","null","<p>Well done.</p>","null"
"2001.1999999284744","17638","[1042,1042,1042,1041,1036,1027,1021,1014,1007,997,985,971,961,952,945,934,920,900,876,859,848,841,833,826,820,813,804,792,777,757,716,700,688,679,670,658,640,619,602,587,574,566,558,547,531,511,484,460,440,411,393,375,356,336,320,309,304,303,303]","[467,467,467,467,467,467,467,467,467,467,466,465,465,465,465,464,463,462,460,459,457,457,457,457,457,459,460,461,462,464,468,469,469,469,468,468,468,468,467,465,464,464,464,464,464,465,465,465,465,465,465,464,462,460,459,458,457,457,457]","false","13.167000000000002","33","135","r","300","972.7285282086034","0","399","AA","trial","11","manual-tracking","4","19582","0.0-0.0-0.2","","",""
"","","","","","","","","","","","","","","feedback","","html-button-response","5","21088","0.0-0.0-1.2","null","<p>Well done.</p>","null"
"2001.1999999284744","22622","[444,444,444,444,444,446,447,450,462,490,513,526,562,583,601,619,631,639,646,652,660,668,678,687,701,717,737,753,770,787,802,826,835,844,853,864,876,890,904,920,937,954,972,990,1010,1025,1038,1051,1064,1073,1084,1095,1119,1136,1143,1166,1180,1194,1208]","[470,470,470,470,470,470,470,470,472,472,472,472,472,472,472,472,471,471,470,470,469,469,469,469,469,469,469,469,469,469,468,466,466,466,466,466,466,466,466,466,466,466,467,467,468,468,468,468,467,467,467,466,465,464,463,462,462,462,463]","false","13.167000000000002","33","45","l","-300","834.6703750722523","0","399","AA","trial","17","manual-tracking","6","24566","0.0-0.0-0.3","","",""
"","","","","","","","","","","","","","","feedback","","html-button-response","7","26069","0.0-0.0-1.3","null","<p>Well done.</p>","null"
"2000.8999999761581","28838.5","[1037,1037,1037,1037,1035,1030,1023,1008,995,980,965,946,929,913,896,880,865,850,836,824,807,790,770,749,730,710,692,677,665,652,637,633,621,614,605,594,582,569,555,544,535,526,517,506,493,479,461,448,434,418,406,393,383,372,354,343,336,331,329]","[467,467,467,467,467,467,467,467,467,467,468,470,471,471,472,472,472,472,472,472,472,472,472,472,472,472,472,474,474,474,475,475,476,477,479,480,480,480,480,480,480,480,480,479,478,477,476,475,473,472,471,470,469,467,467,467,467,468,469]","false","13.167000000000002","33","270","r","300","800.6952816129169","0","399","AA","trial","78","manual-tracking","8","30782","0.0-0.0-0.4","","",""
"","","","","","","","","","","","","","","feedback","","html-button-response","9","32287","0.0-0.0-1.4","null","<p>Well done.</p>","null"
"2001.2999999523163","33705.39999997616","[434,434,435,437,439,441,443,446,453,461,468,479,491,506,523,543,566,593,620,648,679,698,715,727,739,751,763,776,790,820,840,862,883,905,924,941,954,969,978,986,995,1002,1012,1022,1034,1047,1067,1086,1106,1124,1147,1162,1169,1189,1205,1223,1232,1236,1237]","[467,467,467,467,467,467,467,467,467,467,467,467,467,467,466,464,464,464,464,464,464,464,464,464,464,464,463,463,463,463,463,464,466,467,468,470,472,473,474,475,475,475,475,475,475,475,475,475,475,475,475,474,474,473,472,471,471,471,471]","false","13.167000000000002","33","270","l","-300","1097.4306085347266","0","399","AA","trial","70","manual-tracking","10","35649","0.0-0.0-0.5","","",""
"","","","","","","","","","","","","","","feedback","","html-button-response","11","37153","0.0-0.0-1.5","null","<p>Well done.</p>","null"
"2001.1000000238419","39622.299999952316","[440,440,440,440,440,440,440,440,440,440,440,441,455,474,504,529,553,579,604,630,651,669,684,702,714,728,742,754,769,784,799,828,837,861,875,887,897,905,916,927,939,953,970,989,1009,1032,1052,1073,1091,1108,1124,1139,1150,1163,1177,1201,1211,1214,1214]","[470,470,470,470,470,470,470,470,470,470,470,470,469,468,468,468,471,474,477,477,477,477,477,477,477,477,477,477,476,476,476,476,476,476,476,477,477,479,480,481,483,484,484,484,484,484,483,482,482,482,481,480,479,478,477,475,474,473,473]","false","13.167000000000002","33","135","l","-300","982.8715605910153","0","399","AA","trial","35","manual-tracking","12","41565","0.0-0.0-0.6","","",""
"","","","","","","","","","","","","","","feedback","","html-button-response","13","43069","0.0-0.0-1.6","null","<p>Well done.</p>","null"
"2001.5","44605.5","[1038,1038,1038,1038,1038,1038,1038,1038,1038,1036,1027,1014,1000,984,963,939,912,886,859,836,810,794,777,763,749,726,710,702,675,656,637,620,604,589,579,567,556,545,535,523,510,497,485,470,455,443,425,405,391,379,362,352,343,337,331,322,309,293,273]","[473,473,473,473,473,473,473,473,473,473,473,473,473,473,473,473,473,473,473,473,473,473,473,473,473,472,472,471,470,470,470,470,470,470,471,472,472,473,474,475,476,477,478,480,480,481,482,483,484,485,487,488,489,489,489,488,485,482,478]","false","13.167000000000002","33","315","r","300","1139.210820677907","0","399","AA","trial","63","manual-tracking","14","46548","0.0-0.0-0.7","","",""
"","","","","","","","","","","","","","","feedback","","html-button-response","15","48051","0.0-0.0-1.7","null","<p>Well done.</p>","null"
"2001.1000000238419","49472.799999952316","[435,435,435,439,444,449,460,475,493,510,531,554,569,582,595,610,628,648,667,690,706,720,732,743,752,761,771,781,796,807,821,835,851,866,878,890,905,911,918,924,932,943,958,978,993,1010,1018,1023,1028,1035,1044,1053,1065,1092,1105,1112,1116,1118,1119]","[467,467,467,467,467,467,467,467,467,467,467,467,467,467,467,467,467,467,467,467,467,467,467,467,467,467,467,467,468,468,468,469,469,470,470,470,470,470,470,470,470,469,469,468,468,468,468,468,468,468,468,467,466,464,463,463,462,462,462]","false","13.167000000000002","33","45","l","-300","1050.4308197666808","0","399","AA","trial","65","manual-tracking","16","51415","0.0-0.0-0.8","","",""
"","","","","","","","","","","","","","","feedback","","html-button-response","17","52917","0.0-0.0-1.8","null","<p>Well done.</p>","null"
"2001.2000000476837","54489.09999990463","[1040,1040,1040,1040,1039,1037,1033,1024,1012,981,957,932,906,878,858,841,828,817,809,801,793,786,780,767,754,739,721,702,683,664,646,623,612,602,589,578,566,556,547,541,533,523,512,499,487,474,460,444,421,402,390,378,368,359,350,341,333,323,309]","[465,465,465,465,465,465,465,465,465,465,465,466,467,469,470,470,470,470,470,470,470,470,470,470,470,470,470,470,470,470,470,470,469,469,469,469,469,469,469,467,465,464,463,463,463,463,463,463,463,463,463,463,463,463,463,463,463,463,463]","false","13.167000000000002","33","90","r","300","1001.6813872083859","0","399","AA","trial","10","manual-tracking","18","56431","0.0-0.0-0.9","","",""
"","","","","","","","","","","","","","","feedback","","html-button-response","19","57935","0.0-0.0-1.9","null","<p>Well done.</p>","null"
"2001.3000000715256","59255.59999990463","[432,432,438,447,459,474,488,504,518,536,556,576,592,612,627,643,658,673,685,700,714,724,736,748,760,775,791,807,824,840,860,878,901,916,934,948,961,973,983,991,998,1006,1012,1019,1025,1032,1041,1054,1070,1091,1125,1144,1150,1150,1150,1150,1150,1150,1150]","[469,469,469,469,469,469,469,469,469,469,469,469,470,471,471,471,471,471,471,473,474,474,475,476,477,477,479,480,481,482,482,482,482,481,480,477,476,475,475,475,475,475,475,476,477,478,479,479,479,479,479,478,477,477,477,477,477,477,477]","false","13.167000000000002","33","270","l","-300","921.5889399174604","0","399","AA","trial","22","manual-tracking","20","61198","0.0-0.0-0.10","","",""
"","","","","","","","","","","","","","","feedback","","html-button-response","21","62701","0.0-0.0-1.10","null","<p>Well done.</p>","null"
"2001.2000000476837","64056.199999928474","[1046,1046,1044,1042,1041,1038,1034,1025,1007,986,961,935,910,890,872,860,847,836,828,815,803,789,773,757,740,722,700,685,674,661,651,640,630,621,613,603,595,588,581,573,558,545,533,514,500,489,476,462,447,430,415,401,389,375,364,354,344,337,332]","[469,469,469,469,469,469,469,469,468,467,466,466,466,466,466,466,466,467,467,467,467,467,467,467,467,467,467,467,467,468,470,471,471,471,471,471,470,469,469,468,468,468,468,468,468,468,468,468,468,469,471,472,472,472,472,472,472,473,474]","false","13.167000000000002","33","180","r","300","984.5892886630528","0","399","AA","trial","44","manual-tracking","22","65998","0.0-0.0-0.11","","",""
"","","","","","","","","","","","","","","feedback","","html-button-response","23","67499","0.0-0.0-1.11","null","<p>Well done.</p>","null"
"2001.2000000476837","69306.29999995232","[1040,1040,1040,1036,1028,1020,1009,997,986,962,941,919,896,869,852,840,830,822,815,810,806,801,789,775,760,742,720,700,683,666,649,629,606,594,580,569,558,543,531,513,500,488,473,458,439,416,394,380,373,373,373,373,373,373,373,373,373,373,373]","[463,463,463,463,463,463,463,463,462,459,457,456,453,448,445,444,444,444,445,446,446,446,446,446,446,446,448,450,451,452,453,455,458,459,459,459,460,460,460,462,463,465,467,469,471,472,472,472,472,472,472,472,472,472,472,472,472,472,472]","false","13.167000000000002","33","0","r","300","938.1872756327806","0","399","AA","trial","8","manual-tracking","24","71248","0.0-0.0-0.12","","",""
"","","","","","","","","","","","","","","feedback","","html-button-response","25","72750","0.0-0.0-1.12","null","<p>Well done.</p>","null"
"2002","74639.59999990463","[1044,1044,1043,1042,1040,1035,1030,1021,1014,1000,986,967,948,921,903,885,864,850,842,820,803,787,772,758,739,727,713,703,693,684,674,665,655,646,632,619,607,595,579,565,549,523,506,491,479,470,463,457,451,447,440,430,416,403,392,382,374,369,367]","[470,470,470,470,470,470,470,470,470,470,471,472,473,473,473,473,473,473,473,474,475,477,478,478,479,479,479,479,478,477,476,475,474,473,469,466,463,462,460,460,460,460,460,460,460,460,460,461,462,463,464,465,467,469,469,471,472,472,472]","false","13.167000000000002","33","135","r","300","814.0457198226545","0","399","AA","trial","59","manual-tracking","26","76582","0.0-0.0-0.13","","",""
"","","","","","","","","","","","","","","feedback","","html-button-response","27","78085","0.0-0.0-1.13","null","<p>Well done.</p>","null"
"2001.3999999761581","79539.5","[445,445,445,445,446,448,454,464,485,504,523,543,562,579,594,608,619,631,645,660,679,701,723,744,767,782,793,806,816,830,835,854,867,878,888,898,910,920,933,949,965,984,1000,1021,1043,1065,1085,1102,1117,1130,1146,1168,1171,1175,1176,1177,1177,1177,1177]","[466,466,466,466,466,466,466,466,466,466,465,464,464,462,462,461,461,461,461,461,462,464,466,467,469,470,471,471,471,471,471,471,471,472,472,473,475,475,475,475,476,477,477,478,478,478,478,478,478,478,479,481,481,480,478,477,477,477,477]","false","13.167000000000002","33","180","l","-300","891.8218768781286","0","399","AA","trial","4","manual-tracking","28","81481","0.0-0.0-0.14","","",""
"","","","","","","","","","","","","","","feedback","","html-button-response","29","82985","0.0-0.0-1.14","null","<p>Well done.</p>","null"
"2002.2000000476837","85840.69999992847","[1036,1032,1030,1028,1025,1022,1013,1002,988,962,933,886,871,840,824,811,799,791,785,778,768,757,742,727,711,694,672,654,636,617,600,582,567,551,535,520,500,486,472,458,445,433,420,409,397,388,374,365,356,347,337,327,313,294,281,274,270,269,269]","[466,466,466,466,466,466,466,466,466,470,473,478,479,480,480,480,481,481,481,481,481,481,481,481,480,480,479,479,478,478,478,478,478,478,478,478,479,481,482,483,484,484,485,486,487,488,489,489,489,490,490,490,490,490,489,489,489,490,491]","false","13.167000000000002","33","315","r","300","1167.7189403624657","0","399","AA","trial","15","manual-tracking","30","87783","0.0-0.0-0.15","","",""
"","","","","","","","","","","","","","","feedback","","html-button-response","31","89285","0.0-0.0-1.15","null","<p>Well done.</p>","null"
"2001.3000000715256","90956.69999992847","[1046,1046,1046,1046,1046,1044,1039,1030,1004,981,956,931,908,885,867,851,840,826,810,794,782,770,762,755,745,733,723,710,701,689,672,662,649,638,623,603,567,553,544,538,532,525,518,507,496,486,471,459,440,400,369,347,339,339,339,339,339,339,339]","[466,466,466,466,466,466,466,466,466,466,466,466,466,466,466,466,466,466,468,469,470,470,470,470,470,471,473,473,473,473,473,472,470,467,464,462,462,462,463,463,462,462,462,462,462,462,462,461,460,459,460,469,480,480,480,480,480,480,480]","false","13.167000000000002","33","90","r","300","1016.2321906388896","0","399","AA","trial","42","manual-tracking","32","92897","0.0-0.0-0.16","","",""
"","","","","","","","","","","","","","","feedback","","html-button-response","33","94399","0.0-0.0-1.16","null","<p>Well done.</p>","null"
"2001.6000000238419","95806.39999997616","[439,440,449,457,463,468,478,490,505,525,551,571,588,603,619,633,647,665,681,692,706,718,731,745,757,769,779,788,799,808,817,827,838,850,860,873,887,906,922,938,958,977,993,1008,1022,1026,1032,1038,1048,1063,1092,1125,1148,1155,1155,1155,1155,1155,1155]","[479,479,479,479,479,479,479,479,479,479,479,479,478,478,477,476,475,475,473,473,473,472,472,471,471,471,471,471,471,471,471,471,471,472,473,475,476,479,481,484,487,489,491,492,493,493,494,494,494,491,485,480,476,476,476,476,476,476,476]","false","13.167000000000002","33","225","l","-300","992.0986581674088","0","399","AA","trial","69","manual-tracking","34","97747","0.0-0.0-0.17","","",""
"","","","","","","","","","","","","","","feedback","","html-button-response","35","99250","0.0-0.0-1.17","null","<p>Well done.</p>","null"
"2000.8999999761581","100873.79999995232","[436,436,437,443,455,466,475,485,496,506,521,530,540,549,557,566,575,584,597,611,627,651,673,694,714,731,744,755,763,771,775,783,793,804,816,831,849,867,886,913,934,953,970,986,1000,1014,1029,1041,1061,1075,1095,1109,1114,1114,1114,1114,1114,1114,1114]","[469,469,469,469,469,469,469,469,469,468,467,467,467,467,467,467,467,468,469,470,470,470,470,470,470,470,470,470,470,470,470,470,470,469,469,469,469,468,466,463,462,462,462,462,464,464,465,465,465,465,465,465,465,465,465,465,465,465,465]","false","13.167000000000002","33","45","l","-300","819.2437206293579","0","399","AA","trial","1","manual-tracking","36","102814","0.0-0.0-0.18","","",""
"","","","","","","","","","","","","","","feedback","","html-button-response","37","104317","0.0-0.0-1.18","null","<p>Well done.</p>","null"
"2000.6999999284744","106058.5","[1044,1044,1044,1044,1042,1038,1032,1025,1017,1004,986,961,911,885,859,836,815,799,784,772,758,744,733,722,709,698,685,673,659,642,627,611,594,571,560,548,537,527,516,507,498,489,477,465,451,438,426,409,398,384,373,361,351,335,326,316,300,286,274]","[461,461,461,461,461,461,461,461,461,461,461,461,465,468,470,472,473,474,474,474,474,474,474,474,475,476,477,477,478,478,478,478,478,478,478,478,478,478,478,477,477,477,477,477,477,477,477,478,478,478,479,480,481,483,483,484,484,484,484]","false","13.167000000000002","33","270","r","300","1067.58914697198","0","399","AA","trial","14","manual-tracking","38","107998","0.0-0.0-0.19","","",""
"","","","","","","","","","","","","","","feedback","","html-button-response","39","109501","0.0-0.0-1.19","null","<p>Well done.</p>","null"
"2001.1000000238419","111423.79999995232","[435,435,435,438,446,460,473,485,511,534,557,584,610,632,651,660,665,669,672,676,684,694,708,728,749,773,800,825,850,871,898,917,927,936,944,952,961,972,986,1000,1022,1044,1076,1101,1114,1116,1116,1116,1116,1116,1116,1116,1116,1116,1116,1116,1117,1134,1155]","[466,466,466,466,466,466,466,466,466,465,463,461,460,460,460,459,458,458,458,458,458,460,464,467,471,474,478,480,482,483,483,483,483,483,482,481,480,478,477,476,474,473,472,471,468,466,466,466,466,466,466,466,466,466,466,466,466,465,465]","false","13.167000000000002","33","0","l","-300","1065.0312674195904","0","399","AA","trial","16","manual-tracking","40","113363","0.0-0.0-0.20","","",""
"","","","","","","","","","","","","","","feedback","","html-button-response","41","114867","0.0-0.0-1.20","null","<p>Well done.</p>","null"
"2001.0999999046326","116357","[1036,1036,1036,1036,1036,1032,1024,1013,1001,970,944,915,895,878,863,853,845,840,833,825,812,799,783,767,751,735,718,707,694,680,669,657,646,632,619,609,596,571,554,535,514,498,483,471,460,451,442,433,426,418,408,396,382,363,341,317,276,231,201]","[457,457,457,458,459,459,459,459,459,459,463,471,477,483,488,489,489,489,487,485,482,479,476,473,471,470,468,467,466,466,466,466,466,466,466,466,466,467,469,471,474,476,477,477,477,477,477,477,476,476,475,475,474,474,474,475,482,493,503]","false","13.167000000000002","33","135","r","300","870.5610549027563","0","399","AA","trial","27","manual-tracking","42","118296","0.0-0.0-0.21","","",""
"","","","","","","","","","","","","","","feedback","","html-button-response","43","119798","0.0-0.0-1.21","null","<p>Well done.</p>","null"
"2001.5","121057.69999992847","[441,444,450,457,464,474,490,512,536,549,562,576,589,607,625,649,661,675,692,711,731,752,773,793,811,835,852,866,876,884,890,896,901,912,916,926,935,947,960,975,984,1011,1035,1051,1065,1077,1091,1106,1122,1139,1158,1180,1209,1221,1227,1229,1229,1229,1229]","[465,465,465,465,465,465,465,465,466,469,471,472,472,470,467,465,465,465,464,464,464,464,464,464,466,467,468,469,470,471,472,472,472,472,472,471,470,468,466,462,460,455,453,453,454,457,461,466,471,476,478,480,480,480,478,477,477,477,477]","false","13.167000000000002","33","0","l","-300","830.9582800134758","0","399","AA","trial","0","manual-tracking","44","122997","0.0-0.0-0.22","","",""
"","","","","","","","","","","","","","","feedback","","html-button-response","45","124501","0.0-0.0-1.22","null","<p>Well done.</p>","null"
"2001.1999999284744","126407.39999997616","[439,439,439,439,442,451,469,492,515,535,550,569,594,610,628,646,664,680,698,716,738,752,765,777,787,797,805,813,823,833,844,856,870,882,896,912,928,954,964,974,984,989,1008,1016,1041,1059,1082,1104,1126,1146,1156,1164,1164,1164,1164,1164,1164,1164,1164]","[463,463,463,463,463,463,463,463,460,458,458,459,461,461,461,460,458,457,455,453,452,451,451,451,451,451,451,451,451,452,454,454,456,457,459,460,462,467,470,472,473,473,469,467,461,459,459,460,466,473,477,479,479,479,479,479,479,479,479]","false","13.167000000000002","33","315","l","-300","994.654910307443","0","399","AA","trial","7","manual-tracking","46","128346","0.0-0.0-0.23","","",""
"","","","","","","","","","","","","","","feedback","","html-button-response","47","129848","0.0-0.0-1.23","null","<p>Well done.</p>","null"
"2001.2999999523163","131174.29999995232","[1050,1050,1050,1050,1045,1033,1011,978,946,893,861,834,812,793,784,778,774,770,762,753,741,723,708,693,678,662,644,618,607,579,560,548,536,526,514,503,490,478,465,451,438,428,421,413,407,400,394,387,379,375,370,358,342,317,288,268,257,257,257]","[466,466,466,466,466,466,466,468,472,477,479,480,480,479,477,475,473,472,470,469,468,468,468,468,468,468,467,465,464,462,460,460,459,459,459,459,460,462,464,466,468,469,470,471,472,473,473,474,475,475,475,476,477,478,479,479,479,480,480]","false","13.167000000000002","33","225","r","300","1051.079572216438","0","399","AA","trial","13","manual-tracking","48","133113","0.0-0.0-0.24","","",""
"","","","","","","","","","","","","","","feedback","","html-button-response","49","134615","0.0-0.0-1.24","null","<p>Well done.</p>","null"
"2001.5","136591.19999992847","[1038,1038,1038,1037,1032,1027,1020,1012,994,981,971,959,950,939,928,920,913,904,891,873,854,832,812,798,789,781,776,768,759,750,727,713,699,685,669,654,634,616,599,579,557,535,509,479,452,436,424,412,404,393,381,366,352,342,339,339,339,339,339]","[467,467,467,467,467,467,467,464,463,463,463,463,463,463,463,463,463,463,463,463,463,463,463,463,463,463,463,463,463,463,463,463,464,464,464,463,462,462,462,462,465,469,473,480,485,487,488,489,491,493,495,497,498,498,498,498,498,498,498]","false","13.167000000000002","33","0","r","300","937.617684084946","0","399","AA","trial","24","manual-tracking","50","138530","0.0-0.0-0.25","","",""
"","","","","","","","","","","","","","","feedback","","html-button-response","51","140032","0.0-0.0-1.25","null","<p>Well done.</p>","null"
"2001.1000000238419","142008.09999990463","[431,433,444,457,469,474,477,481,488,502,525,548,567,578,586,594,604,614,628,643,661,681,706,728,753,775,794,811,827,842,858,879,913,935,957,973,989,1004,1019,1034,1059,1079,1093,1104,1110,1110,1110,1110,1110,1110,1110,1110,1110,1116,1143,1180,1248,1291,1320]","[468,468,468,468,468,468,468,468,468,468,468,468,469,472,475,476,476,476,476,475,475,475,478,484,489,493,495,495,495,495,494,493,492,491,490,490,490,491,492,494,494,493,491,489,486,486,486,486,486,486,486,486,486,485,478,473,468,468,474]","false","13.167000000000002","33","45","l","-300","898.5600178960647","0","399","AA","trial","33","manual-tracking","52","143946","0.0-0.0-0.26","","",""
"","","","","","","","","","","","","","","feedback","","html-button-response","53","145449","0.0-0.0-1.26","null","<p>Well done.</p>","null"
"2001.1000000238419","146974.19999992847","[1047,1038,1031,1026,1018,1010,1002,994,986,977,964,950,934,920,903,885,869,857,838,827,816,807,796,785,773,762,748,731,713,701,689,674,659,646,634,622,608,581,553,531,517,488,476,442,433,431,431,431,431,431,431,431,431,431,414,398,369,344,325]","[475,475,475,475,475,475,475,475,475,475,473,472,470,469,468,466,465,463,462,462,462,462,463,464,465,465,466,466,467,467,467,467,467,467,467,467,467,469,474,476,478,487,494,510,515,515,515,515,515,515,515,515,515,515,514,509,498,489,482]","false","13.167000000000002","33","225","r","300","1128.0401882252015","0","399","AA","trial","29","manual-tracking","54","148912","0.0-0.0-0.27","","",""
"","","","","","","","","","","","","","","feedback","","html-button-response","55","150414","0.0-0.0-1.27","null","<p>Well done.</p>","null"
"2001.3999999761581","151791.5","[423,423,426,430,434,438,443,450,459,471,492,530,564,592,611,624,634,647,658,673,686,696,708,720,731,738,744,750,762,775,789,803,820,834,848,861,875,899,913,926,939,949,960,968,976,987,997,1010,1024,1039,1055,1070,1086,1102,1122,1143,1177,1188,1192]","[461,461,461,461,461,461,461,461,461,461,461,458,456,455,455,455,455,455,455,455,456,458,460,461,462,462,463,463,463,463,464,464,464,464,464,463,463,463,463,463,463,463,463,463,464,465,465,465,465,465,465,465,467,468,470,471,472,471,470]","false","13.167000000000002","33","315","l","-300","1090.328365706041","0","399","AA","trial","39","manual-tracking","56","153730","0.0-0.0-0.28","","",""
"","","","","","","","","","","","","","","feedback","","html-button-response","57","155231","0.0-0.0-1.28","null","<p>Well done.</p>","null"
"2001.2999999523163","156775","[1044,1044,1044,1041,1034,1028,1021,1010,991,963,937,916,898,874,862,850,837,827,811,797,791,766,761,740,726,714,701,691,680,670,659,648,634,624,613,602,591,578,565,550,534,521,507,494,482,464,450,435,423,410,403,397,393,387,382,376,366,355,340]","[468,468,468,468,468,468,468,468,468,468,468,466,465,465,465,465,466,467,469,471,472,474,474,474,474,474,473,472,470,468,467,466,465,465,465,465,465,465,465,465,465,465,464,463,463,463,463,463,463,463,463,463,463,463,463,463,463,463,465]","false","13.167000000000002","33","45","r","300","1052.1387797898437","0","399","AA","trial","25","manual-tracking","58","158713","0.0-0.0-0.29","","",""
"","","","","","","","","","","","","","","feedback","","html-button-response","59","160217","0.0-0.0-1.29","null","<p>Well done.</p>","null"
"2001","162208.69999992847","[1042,1040,1031,1015,992,978,966,957,948,937,923,910,898,885,869,863,846,831,816,801,784,765,753,740,729,720,714,707,698,690,676,662,648,631,615,600,583,559,553,532,514,503,490,477,464,449,435,422,406,397,385,375,364,355,349,346,345,345,345]","[469,469,469,469,470,470,470,470,470,469,469,469,469,469,469,469,469,469,471,472,473,474,474,474,474,474,474,474,474,474,474,474,474,474,473,472,471,471,471,471,471,471,472,473,475,477,478,479,480,480,481,481,481,481,481,481,482,482,482]","false","13.167000000000002","33","180","r","300","1134.9098879220235","0","399","AA","trial","60","manual-tracking","60","164146","0.0-0.0-0.30","","",""
"","","","","","","","","","","","","","","feedback","","html-button-response","61","165648","0.0-0.0-1.30","null","<p>Well done.</p>","null"
"2005","167525.19999992847","[1040,1040,1037,1029,1019,1010,1003,994,982,958,949,922,907,895,885,876,866,859,849,836,822,806,788,764,740,712,694,680,668,659,650,643,627,618,600,585,573,558,546,536,524,515,500,486,470,451,430,415,406,402,401,401,401,401,401,401,401,401,401]","[473,473,473,473,473,473,473,473,473,473,473,473,473,473,473,473,472,472,471,471,471,471,472,472,475,477,478,480,480,482,483,483,483,483,480,476,472,469,467,466,465,465,465,465,467,469,471,473,476,478,479,479,479,479,479,479,479,479,479]","false","13.167000000000002","33","135","r","300","1184.906020446898","0","399","AA","trial","75","manual-tracking","62","169466","0.0-0.0-0.31","","",""
"","","","","","","","","","","","","","","feedback","","html-button-response","63","170970","0.0-0.0-1.31","null","<p>Well done.</p>","null"
"2000.8999999761581","173041.29999995232","[1044,1042,1038,1032,1025,1017,1013,1007,996,980,956,929,907,888,876,865,860,855,851,846,835,820,802,779,764,749,738,726,713,703,690,676,657,640,625,611,599,586,574,563,550,534,526,515,505,495,484,475,468,463,457,453,448,441,432,422,414,410,410]","[466,466,466,466,466,466,466,466,466,466,466,467,467,467,467,467,466,465,464,463,463,462,462,461,459,458,458,458,458,458,458,458,460,462,464,465,466,467,467,468,470,472,472,472,473,474,474,475,476,476,476,476,476,476,475,474,474,474,474]","false","13.167000000000002","33","225","r","300","1109.61822331055","0","399","AA","trial","77","manual-tracking","64","174978","0.0-0.0-0.32","","",""
"","","","","","","","","","","","","","","feedback","","html-button-response","65","176482","0.0-0.0-1.32","null","<p>Well done.</p>","null"
"2000.8999999761581","177992.19999992847","[437,437,437,437,437,437,437,437,437,448,469,508,545,571,592,600,605,611,619,633,647,662,676,687,700,711,725,741,758,781,799,819,839,860,882,904,924,945,968,990,1001,1012,1022,1031,1042,1053,1068,1081,1096,1111,1122,1134,1143,1151,1159,1168,1177,1183,1187]","[468,468,468,468,468,468,468,468,468,466,464,463,463,464,466,467,467,468,469,470,471,471,471,472,474,475,476,476,476,478,480,482,483,483,483,483,482,481,480,479,478,477,477,477,477,477,477,477,476,475,474,474,474,474,473,473,473,472,470]","false","13.167000000000002","33","45","l","-300","898.854015991974","0","399","AA","trial","49","manual-tracking","66","179929","0.0-0.0-0.33","","",""
"","","","","","","","","","","","","","","feedback","","html-button-response","67","181433","0.0-0.0-1.33","null","<p>Well done.</p>","null"
"2001.3999999761581","183258.29999995232","[442,442,443,446,450,457,468,479,498,518,542,578,598,612,623,629,639,647,654,664,677,690,705,720,737,760,779,795,810,827,843,855,869,887,895,904,914,924,936,951,968,987,1006,1024,1035,1049,1066,1085,1109,1127,1143,1160,1174,1191,1206,1215,1220,1222,1222]","[464,464,464,464,464,464,464,464,464,464,464,464,464,464,464,463,462,462,462,462,462,462,463,465,467,468,468,468,469,471,473,474,475,475,475,475,475,475,474,472,470,468,466,465,465,465,465,465,465,465,465,466,467,467,466,464,462,462,462]","false","13.167000000000002","33","0","l","-300","999.6219962712","0","399","AA","trial","48","manual-tracking","68","185195","0.0-0.0-0.34","","",""
"","","","","","","","","","","","","","","feedback","","html-button-response","69","186697","0.0-0.0-1.34","null","<p>Well done.</p>","null"
"2001.3999999761581","188309.89999997616","[1036,1036,1036,1036,1036,1036,1033,1024,1006,969,933,907,885,870,858,849,841,835,828,817,805,792,777,762,746,730,717,701,682,667,654,634,621,606,595,580,563,548,534,522,510,498,486,473,460,445,426,414,399,387,375,362,347,327,301,282,273,268,268]","[468,468,468,468,468,468,468,468,468,468,468,470,470,470,470,469,468,468,467,467,466,465,465,464,463,461,460,460,459,459,459,459,460,461,462,463,465,466,466,468,468,469,469,470,470,470,471,472,472,472,472,473,474,479,483,484,484,484,483]","false","13.167000000000002","33","45","r","300","1088.397694590489","0","399","AA","trial","73","manual-tracking","70","190246","0.0-0.0-0.35","","",""
"","","","","","","","","","","","","","","feedback","","html-button-response","71","191750","0.0-0.0-1.35","null","<p>Well done.</p>","null"
"2002","193560.29999995232","[1038,1033,1025,1016,1005,989,978,970,964,960,953,945,936,926,913,892,871,846,810,789,772,757,746,737,728,721,714,707,695,682,667,648,625,597,575,561,545,533,522,511,502,492,485,476,462,449,428,406,385,367,355,352,352,352,352,352,352,352,352]","[467,467,467,467,467,467,467,467,465,463,461,459,458,456,456,456,456,457,460,462,463,463,463,463,463,463,463,463,463,463,463,463,463,463,463,463,463,463,462,462,461,460,459,458,458,458,461,466,469,473,477,481,481,481,481,481,481,481,481]","false","13.167000000000002","33","225","r","300","826.3391736783055","0","399","AA","trial","45","manual-tracking","72","195497","0.0-0.0-0.36","","",""
"","","","","","","","","","","","","","","feedback","","html-button-response","73","196998","0.0-0.0-1.36","null","<p>Well done.</p>","null"
"2001","198859.39999997616","[1043,1043,1042,1034,1021,1009,997,979,955,937,914,899,882,868,852,839,829,820,809,800,792,783,771,759,746,730,710,690,670,658,646,635,625,616,607,597,581,574,548,528,509,488,471,456,443,431,423,417,410,403,399,394,387,379,366,349,335,327,320]","[468,468,468,468,468,468,468,468,468,468,469,472,475,478,480,480,480,480,478,477,476,476,476,476,476,475,473,471,468,466,463,462,461,461,461,461,462,462,465,467,469,471,473,475,476,477,477,478,479,479,479,480,480,481,483,485,487,491,502]","false","13.167000000000002","33","0","r","300","800.8562453582492","0","399","AA","trial","40","manual-tracking","74","200795","0.0-0.0-0.37","","",""
"","","","","","","","","","","","","","","feedback","","html-button-response","75","202299","0.0-0.0-1.37","null","<p>Well done.</p>","null"
"2001.3999999761581","204059.19999992847","[1042,1042,1041,1037,1032,1024,1014,1005,981,972,946,932,923,914,904,890,875,851,830,812,793,779,767,761,757,754,746,739,731,724,714,701,681,665,650,632,615,598,582,568,556,544,533,518,499,482,465,450,437,427,418,408,399,389,385,383,383,383,383]","[465,465,465,465,465,465,465,464,462,462,461,459,458,457,456,455,455,455,455,458,461,463,463,463,462,461,461,460,460,458,455,453,451,451,451,451,451,451,453,454,456,457,459,461,463,464,466,466,466,465,463,462,461,461,461,462,464,464,464]","false","13.167000000000002","33","270","r","300","1100.9470078012846","0","399","AA","trial","62","manual-tracking","76","205995","0.0-0.0-0.38","","",""
"","","","","","","","","","","","","","","feedback","","html-button-response","77","207498","0.0-0.0-1.38","null","<p>Well done.</p>","null"
"2001.2999999523163","209609.39999997616","[444,444,453,467,480,491,504,520,537,550,560,568,577,587,601,621,635,657,665,696,721,743,763,780,790,797,805,812,823,834,848,866,887,917,945,973,994,1005,1005,1005,1005,1005,1005,1005,1005,1005,1005,1024,1053,1099,1153,1190,1213,1226,1237,1246,1255,1266,1283]","[471,471,471,471,471,471,471,471,471,471,471,474,477,479,480,480,481,485,486,486,484,481,479,477,476,476,475,474,473,473,472,472,472,472,471,470,470,468,468,468,468,468,468,468,468,468,468,467,465,465,468,475,481,484,485,485,485,485,485]","false","13.167000000000002","33","90","l","-300","1037.2139996877586","0","399","AA","trial","34","manual-tracking","78","211545","0.0-0.0-0.39","","",""
"","","","","","","","","","","","","","","feedback","","html-button-response","79","213047","0.0-0.0-1.39","null","<p>Well done.</p>","null"
"2001.6000000238419","214876.39999997616","[437,437,439,444,448,452,456,464,476,503,516,540,561,583,603,621,637,654,671,686,703,718,734,751,769,788,809,832,867,886,906,925,938,953,970,986,1002,1021,1036,1050,1067,1081,1097,1107,1117,1125,1133,1142,1159,1166,1178,1181,1182,1182,1182,1182,1182,1182,1182]","[460,460,460,460,460,460,460,460,460,460,460,461,461,461,462,462,463,463,463,461,460,459,458,458,458,458,458,458,458,460,461,464,467,470,472,475,477,480,481,482,483,483,483,482,481,481,480,480,479,478,472,469,467,467,467,467,467,467,467]","false","13.167000000000002","33","90","l","-300","1027.036655066604","0","399","AA","trial","2","manual-tracking","80","216812","0.0-0.0-0.40","","",""
"","","","","","","","","","","","","","","feedback","","html-button-response","81","218319","0.0-0.0-1.40","null","<p>Well done.</p>","null"
"2001.2000000476837","220126.69999992847","[438,441,452,464,480,497,515,538,555,572,589,606,621,644,663,679,708,723,737,750,762,773,782,791,801,813,824,835,847,859,871,885,899,916,940,959,978,1001,1013,1025,1036,1048,1064,1077,1087,1097,1106,1114,1121,1127,1145,1162,1176,1185,1189,1189,1189,1189,1189]","[474,474,474,474,474,474,474,474,474,474,474,474,474,474,474,474,473,473,473,473,473,474,475,476,476,476,476,476,476,477,478,478,479,479,479,479,478,477,476,476,475,475,474,474,474,474,474,475,476,477,477,477,477,477,476,476,476,476,476]","false","13.167000000000002","33","90","l","-300","1012.3631490087982","0","399","AA","trial","66","manual-tracking","82","222062","0.0-0.0-0.41","","",""
"","","","","","","","","","","","","","","feedback","","html-button-response","83","223566","0.0-0.0-1.41","null","<p>Well done.</p>","null"
"2001.1999999284744","225359.5","[1052,1051,1049,1040,1026,1011,996,976,953,930,906,886,868,848,828,816,804,791,777,761,746,728,715,702,688,677,663,649,637,625,613,604,596,588,581,574,567,557,545,532,511,497,485,472,460,447,437,424,406,392,380,369,358,348,340,334,329,324,319]","[472,472,472,472,472,472,472,472,472,472,472,472,472,471,471,470,469,469,469,469,469,469,469,469,469,469,469,470,471,472,473,473,473,473,473,473,473,472,470,470,470,470,472,473,474,476,478,479,481,482,482,482,482,482,482,482,481,481,480]","false","13.167000000000002","33","90","r","300","959.7225736011919","0","399","AA","trial","74","manual-tracking","84","227294","0.0-0.0-0.42","","",""
"","","","","","","","","","","","","","","feedback","","html-button-response","85","228799","0.0-0.0-1.42","null","<p>Well done.</p>","null"
"2004.5","230376.69999992847","[441,441,442,445,450,457,467,484,500,513,532,543,555,566,577,588,601,613,626,639,655,670,686,704,724,749,768,785,801,815,830,842,860,871,885,897,911,924,942,955,966,979,989,1001,1014,1027,1042,1063,1089,1126,1164,1186,1193,1193,1193,1193,1193,1193]","[460,460,460,460,460,460,460,460,460,461,464,465,466,466,466,466,468,468,468,468,468,468,469,470,471,471,471,473,474,476,477,479,483,485,487,488,489,489,489,490,491,493,493,493,492,490,487,484,484,484,487,488,488,488,488,488,488,488]","false","13.167000000000002","33","225","l","-300","830.0319105157333","0","399","AA","trial","53","manual-tracking","86","232315","0.0-0.0-0.43","","",""
"","","","","","","","","","","","","","","feedback","","html-button-response","87","233818","0.0-0.0-1.43","null","<p>Well done.</p>","null"
"2000.7000000476837","235509.79999995232","[444,444,444,444,446,450,458,468,487,511,551,575,598,616,631,645,652,668,679,690,703,716,731,745,758,776,791,808,823,838,854,871,888,914,926,938,950,960,974,985,1000,1015,1033,1062,1087,1112,1134,1149,1160,1168,1176,1181,1188,1196,1214,1234,1253,1254,1254]","[474,474,474,474,474,474,474,474,475,475,475,475,475,474,473,473,473,473,473,473,474,475,476,476,478,480,480,480,480,480,480,480,479,477,476,475,473,472,471,470,470,469,469,468,467,467,467,468,469,469,469,470,470,471,472,473,475,475,475]","false","13.167000000000002","33","315","l","-300","976.1183917949808","0","399","AA","trial","71","manual-tracking","88","237444","0.0-0.0-0.44","","",""
"","","","","","","","","","","","","","","feedback","","html-button-response","89","238946","0.0-0.0-1.44","null","<p>Well done.</p>","null"
"2001.2999999523163","240626.89999997616","[1053,1051,1045,1037,1031,1022,1013,1002,987,970,948,923,900,878,861,846,829,820,811,802,790,777,763,745,727,707,682,661,643,625,610,596,585,574,552,540,527,512,497,481,465,450,437,422,405,392,377,361,345,327,306,286,266,259,256,255,255,255,255]","[470,470,470,470,470,470,470,470,470,470,471,473,475,476,476,476,476,475,474,473,473,471,470,469,468,468,467,467,466,466,465,465,465,465,465,465,466,468,470,471,473,474,474,475,476,477,479,480,481,481,481,480,477,474,470,466,463,463,463]","false","13.167000000000002","33","270","r","300","1147.4261962084952","0","399","AA","trial","46","manual-tracking","90","242561","0.0-0.0-0.45","","",""
"","","","","","","","","","","","","","","feedback","","html-button-response","91","244065","0.0-0.0-1.45","null","<p>Well done.</p>","null"
"2001","245576.59999990463","[430,430,433,439,445,449,456,468,485,508,532,556,578,607,625,639,652,664,679,687,696,705,719,733,748,765,783,800,819,838,856,877,890,902,913,925,937,949,970,986,1000,1012,1025,1040,1059,1073,1089,1101,1117,1128,1140,1151,1161,1169,1179,1191,1210,1230,1238]","[475,475,475,475,475,475,475,475,473,469,466,464,463,460,459,459,459,459,460,461,462,463,464,464,464,464,464,464,464,464,464,465,465,465,465,465,465,465,464,464,464,464,464,463,461,460,458,458,458,458,458,457,457,456,455,453,451,450,449]","false","13.167000000000002","33","270","l","-300","875.3292451602325","0","399","AA","trial","6","manual-tracking","92","247510","0.0-0.0-0.46","","",""
"","","","","","","","","","","","","","","feedback","","html-button-response","93","249015","0.0-0.0-1.46","null","<p>Well done.</p>","null"
"2001.1000000238419","250727.29999995232","[426,426,428,434,438,446,461,481,500,513,522,528,533,538,544,555,570,592,618,640,655,669,676,680,683,685,689,697,710,725,749,767,785,801,816,834,849,864,878,903,914,927,941,953,967,982,997,1015,1036,1052,1069,1085,1100,1114,1128,1140,1152,1161,1164]","[463,463,463,463,463,463,464,465,465,466,467,469,469,469,469,469,469,467,464,464,464,464,464,464,464,465,466,467,467,467,467,466,465,465,465,464,464,464,464,465,465,466,467,467,468,468,469,469,470,470,471,472,474,475,475,476,476,476,476]","false","13.167000000000002","33","225","l","-300","1077.4192645499056","0","399","AA","trial","37","manual-tracking","94","252661","0.0-0.0-0.47","","",""
"","","","","","","","","","","","","","","feedback","","html-button-response","95","254164","0.0-0.0-1.47","null","<p>Well done.</p>","null"
"2000.5","255993.79999995232","[424,425,431,439,449,456,464,474,488,503,520,537,554,567,578,591,616,637,646,669,677,698,712,724,735,746,756,765,774,783,796,812,833,857,886,907,925,943,962,983,1010,1033,1036,1036,1036,1036,1036,1036,1036,1036,1036,1036,1036,1036,1056,1095,1187,1261,1320]","[474,474,474,474,474,474,474,474,474,474,474,474,474,474,474,474,469,466,465,464,464,464,465,467,468,470,472,473,475,476,477,479,481,483,483,483,484,484,485,485,484,481,480,480,480,480,480,480,480,480,480,480,480,480,475,464,455,454,455]","false","13.167000000000002","33","225","l","-300","906.6361536300343","0","399","AA","trial","21","manual-tracking","96","257926","0.0-0.0-0.48","","",""
"","","","","","","","","","","","","","","feedback","","html-button-response","97","259430","0.0-0.0-1.48","null","<p>Well done.</p>","null"
"2001.8999999761581","261928","[1050,1043,1033,1014,995,981,973,971,970,968,959,944,925,903,888,877,863,850,834,819,805,790,773,755,740,728,713,695,681,670,658,646,636,626,616,601,573,555,537,518,496,471,446,423,399,376,362,351,342,329,310,285,257,236,236,236,236,236,236]","[468,468,468,468,468,468,468,468,468,468,468,468,469,469,468,465,462,461,461,461,461,461,462,464,465,466,467,468,469,469,470,470,469,468,466,464,463,463,462,462,462,464,467,469,472,473,473,473,471,468,468,469,476,489,489,489,489,489,489]","false","13.167000000000002","33","90","r","300","807.6165806391638","0","399","AA","trial","26","manual-tracking","98","263862","0.0-0.0-0.49","","",""
"","","","","","","","","","","","","","","feedback","","html-button-response","99","265364","0.0-0.0-1.49","null","<p>Well done.</p>","null"
"2001.8999999761581","267778.1999999285","[1042,1040,1034,1024,1011,1000,989,982,974,964,950,932,903,884,859,840,821,803,789,776,765,753,744,735,722,712,699,684,670,652,633,611,591,563,542,528,513,501,490,479,466,456,440,419,404,387,370,351,333,313,293,284,279,277,275,275,275,275,275]","[466,466,466,466,466,466,466,466,466,466,465,465,465,466,467,467,467,467,467,467,467,467,467,467,467,467,467,467,468,469,470,471,473,474,476,476,476,476,476,475,475,475,474,474,474,474,474,475,475,475,474,472,471,470,470,470,470,470,470]","false","13.167000000000002","33","90","r","300","914.973674693749","0","399","AA","trial","58","manual-tracking","100","269712","0.0-0.0-0.50","","",""
"","","","","","","","","","","","","","","feedback","","html-button-response","101","271213","0.0-0.0-1.50","null","<p>Well done.</p>","null"
"2001.2999999523163","273027.89999997616","[435,435,435,441,452,460,465,475,488,513,536,557,580,602,618,633,649,664,683,702,724,741,755,772,784,799,810,825,839,861,881,902,930,943,959,970,981,993,999,1004,1008,1012,1016,1023,1035,1049,1068,1092,1115,1136,1149,1163,1178,1195,1222,1249,1259,1263,1266]","[467,467,467,467,467,467,467,467,467,467,470,472,472,470,468,467,467,465,464,462,461,461,461,461,461,463,464,466,466,467,467,467,467,467,467,467,467,468,469,470,470,470,471,471,472,472,473,475,475,475,474,472,472,472,474,475,475,473,472]","false","13.167000000000002","33","135","l","-300","833.5175984912719","0","399","AA","trial","19","manual-tracking","102","274961","0.0-0.0-0.51","","",""
"","","","","","","","","","","","","","","feedback","","html-button-response","103","276465","0.0-0.0-1.51","null","<p>Well done.</p>","null"
"2001","278661.1999999285","[1037,1037,1037,1037,1037,1037,1034,1025,1006,975,942,910,877,860,848,838,831,825,818,807,793,770,748,726,704,683,665,648,632,618,603,589,575,560,543,528,506,492,476,458,443,427,410,394,378,362,344,328,314,305,293,282,266,246,226,213,208,207,207]","[474,474,474,474,474,474,474,474,473,471,468,467,467,467,466,465,464,463,463,462,462,462,462,462,462,461,459,458,458,458,458,458,460,463,466,469,472,474,475,475,475,473,471,469,469,469,469,469,469,468,468,468,468,469,473,477,479,479,479]","false","13.167000000000002","33","45","r","300","985.2804968782873","0","399","AA","trial","9","manual-tracking","104","280593","0.0-0.0-0.52","","",""
"","","","","","","","","","","","","","","feedback","","html-button-response","105","282098","0.0-0.0-1.52","null","<p>Well done.</p>","null"
"2001.5","284294.39999997616","[442,447,451,455,460,465,469,474,481,490,502,516,530,546,562,583,606,622,634,649,661,676,690,702,720,732,745,757,770,784,797,810,824,836,853,863,873,885,894,903,913,924,937,950,963,976,989,999,1009,1019,1030,1055,1081,1105,1121,1132,1132,1132,1132]","[469,469,469,469,469,469,469,469,469,469,469,469,469,468,467,465,464,464,464,464,464,464,464,464,465,466,467,468,468,469,469,469,469,469,469,469,468,468,467,467,467,467,467,467,467,466,464,463,463,463,463,463,463,463,463,463,463,463,463]","false","13.167000000000002","33","225","l","-300","847.1778622191121","0","399","AA","trial","5","manual-tracking","106","286227","0.0-0.0-0.53","","",""
"","","","","","","","","","","","","","","feedback","","html-button-response","107","287730","0.0-0.0-1.53","null","<p>Well done.</p>","null"
"2000.6999999284744","289278.5","[1038,1035,1034,1033,1032,1029,1023,1019,1015,1008,996,983,971,955,939,923,899,890,861,848,825,807,791,778,767,759,753,748,740,724,709,690,673,657,645,631,620,608,592,582,572,561,547,534,519,503,479,461,444,428,411,394,379,370,365,365,365,365,365]","[471,471,471,471,471,471,471,471,471,471,471,471,472,473,473,473,473,473,473,473,473,473,473,473,472,469,467,465,463,462,462,462,462,462,460,458,458,458,460,464,467,469,471,471,471,471,472,472,472,473,473,474,474,474,473,473,473,473,473]","false","13.167000000000002","33","270","r","300","1000.0036998638701","0","399","AA","trial","30","manual-tracking","108","291210","0.0-0.0-0.54","","",""
"","","","","","","","","","","","","","","feedback","","html-button-response","109","292713","0.0-0.0-1.54","null","<p>Well done.</p>","null"
"2001.5","294678.59999990463","[1047,1046,1044,1040,1034,1028,1016,1000,981,959,933,913,903,896,890,883,867,850,831,816,794,779,763,745,733,724,717,712,708,703,698,687,672,651,630,613,594,581,570,558,547,534,521,509,494,481,467,449,435,425,415,407,398,385,371,354,327,311,302]","[474,474,474,474,474,474,474,474,472,470,469,469,469,469,469,468,467,466,465,463,462,462,462,462,462,462,462,462,461,460,459,459,459,461,463,465,467,470,471,474,476,478,479,480,480,480,480,481,484,488,491,493,493,493,493,493,493,493,493]","false","13.167000000000002","33","315","r","300","884.3088148029645","0","399","AA","trial","31","manual-tracking","110","296611","0.0-0.0-0.55","","",""
"","","","","","","","","","","","","","","feedback","","html-button-response","111","298113","0.0-0.0-1.55","null","<p>Well done.</p>","null"
"2000.7999999523163","299494.5","[440,442,444,454,460,467,473,480,490,504,517,528,545,559,577,597,619,638,657,676,708,716,737,750,760,769,778,787,796,804,818,830,846,864,881,897,912,923,934,939,943,949,957,969,983,1003,1028,1057,1077,1094,1107,1119,1134,1151,1169,1189,1215,1223,1226,1228]","[459,459,459,459,459,459,459,459,459,457,456,456,457,459,460,460,460,460,460,460,459,459,459,459,459,459,461,461,462,463,463,464,465,467,468,469,471,473,474,476,477,478,478,478,478,476,473,469,467,465,464,462,460,459,458,458,458,460,461,464]","false","13.167000000000002","33","135","l","-300","957.2441446594709","0","399","AA","trial","51","manual-tracking","112","301426","0.0-0.0-0.56","","",""
"","","","","","","","","","","","","","","feedback","","html-button-response","113","302930","0.0-0.0-1.56","null","<p>Well done.</p>","null"
"2001.6999999284744","304478.39999997616","[424,428,437,446,456,468,482,495,505,516,528,540,553,566,579,592,603,621,641,654,669,685,700,716,730,746,762,773,787,800,813,829,845,859,876,892,910,927,939,951,960,971,983,1011,1028,1044,1058,1073,1095,1116,1131,1135,1135,1135,1135,1135,1135,1135,1135]","[476,476,476,476,476,476,476,476,476,476,476,476,476,476,476,476,476,476,476,476,476,476,475,474,473,472,472,472,472,472,472,471,471,471,473,473,473,473,473,472,472,472,472,472,472,473,475,477,477,477,477,477,477,477,477,477,477,477,477]","false","13.167000000000002","33","90","l","-300","1030.1985776376632","0","399","AA","trial","18","manual-tracking","114","306410","0.0-0.0-0.57","","",""
"","","","","","","","","","","","","","","feedback","","html-button-response","115","307912","0.0-0.0-1.57","null","<p>Well done.</p>","null"
"2001.1999999284744","309695.5","[439,443,450,458,469,487,502,520,537,553,567,581,595,610,623,630,640,644,664,679,695,714,740,764,789,816,841,860,876,887,896,904,912,918,924,931,939,948,958,972,982,994,1007,1020,1039,1062,1089,1113,1137,1164,1177,1182,1182,1182,1182,1182,1182,1182,1182]","[461,461,461,461,461,461,461,461,461,461,461,461,461,461,462,463,464,464,464,464,465,466,468,469,470,471,473,475,476,477,477,477,476,475,473,472,470,468,467,464,463,461,460,459,459,459,459,459,459,459,458,458,458,458,458,458,458,458,458]","false","13.167000000000002","33","135","l","-300","1085.7454083177051","0","399","AA","trial","67","manual-tracking","116","311627","0.0-0.0-0.58","","",""
"","","","","","","","","","","","","","","feedback","","html-button-response","117","313130","0.0-0.0-1.58","null","<p>Well done.</p>","null"
"2004.3999999761581","315128.6999999285","[1040,1040,1040,1040,1040,1039,1022,1003,974,945,927,917,910,905,897,889,878,863,845,823,798,775,755,739,725,715,704,685,672,657,639,613,592,571,550,532,518,503,492,482,471,462,452,442,430,415,396,370,339,303,281,281,281,281,281,281,281,281]","[468,468,468,468,468,468,468,468,468,468,468,467,466,464,463,462,462,462,462,463,465,467,467,467,464,463,462,461,461,461,461,463,465,468,470,471,473,475,475,475,475,475,474,472,469,467,464,460,460,463,472,472,472,472,472,472,472,472]","false","13.167000000000002","33","180","r","300","871.6464822291018","0","399","AA","trial","12","manual-tracking","118","317063","0.0-0.0-0.59","","",""
"","","","","","","","","","","","","","","feedback","","html-button-response","119","318565","0.0-0.0-1.59","null","<p>Well done.</p>","null"
"2001.5","319861.89999997616","[442,442,448,453,459,461,464,470,480,491,503,517,542,551,575,587,603,613,625,637,652,670,689,712,737,772,804,839,868,885,898,907,914,919,923,926,935,939,951,962,973,984,997,1012,1028,1042,1056,1074,1097,1123,1148,1175,1196,1203,1206,1207,1207,1207,1207]","[468,468,468,468,468,468,468,468,468,468,468,468,468,467,465,465,465,465,465,467,468,470,471,474,475,477,477,477,477,477,477,476,476,476,476,476,474,474,471,469,466,464,461,458,457,457,457,457,457,457,459,461,463,464,464,465,465,465,465]","false","13.167000000000002","33","180","l","-300","1091.9546080876153","0","399","AA","trial","68","manual-tracking","120","321793","0.0-0.0-0.60","","",""
"","","","","","","","","","","","","","","feedback","","html-button-response","121","323295","0.0-0.0-1.60","null","<p>Well done.</p>","null"
"2004.6000000238419","325178.7999999523","[438,442,450,456,461,464,467,472,480,490,509,528,546,570,584,600,618,636,652,669,678,691,704,718,732,743,754,767,781,794,805,815,825,837,848,861,873,889,907,920,934,950,963,978,991,1006,1029,1050,1072,1091,1109,1125,1140,1158,1193,1210,1219,1222,1222]","[466,466,466,466,466,466,466,466,466,466,467,467,467,467,467,467,466,465,465,465,465,465,465,465,465,465,465,465,465,465,465,466,467,469,470,471,472,473,474,475,475,475,475,475,476,476,476,475,472,470,469,468,468,468,468,468,468,468,468]","false","13.167000000000002","33","135","l","-300","839.3667953823215","0","399","AA","trial","3","manual-tracking","122","327113","0.0-0.0-0.61","","",""
"","","","","","","","","","","","","","","feedback","","html-button-response","123","328617","0.0-0.0-1.61","null","<p>Well done.</p>","null"
"2001.3000000715256","330812.59999990463","[439,439,444,451,462,471,483,496,511,530,550,570,588,609,624,642,651,658,665,672,680,689,703,714,726,737,747,755,765,774,786,804,828,843,857,870,884,898,910,926,940,953,969,987,1007,1026,1045,1083,1104,1127,1141,1169,1178,1182,1182,1182,1182,1182,1182]","[466,466,466,466,466,466,466,466,466,466,466,466,467,468,468,468,467,467,467,467,467,467,467,467,467,467,467,466,466,466,466,466,466,468,470,471,472,472,473,473,474,474,474,474,475,477,481,486,487,487,486,480,476,473,473,473,473,473,473]","false","13.167000000000002","33","270","l","-300","994.8672532994734","0","399","AA","trial","54","manual-tracking","124","332743","0.0-0.0-0.62","","",""
"","","","","","","","","","","","","","","feedback","","html-button-response","125","334245","0.0-0.0-1.62","null","<p>Well done.</p>","null"
"2001.5","336195.89999997616","[435,435,441,447,460,474,496,515,534,554,571,587,603,615,628,648,659,671,681,696,708,721,732,745,756,769,780,795,808,819,830,853,867,881,891,900,905,920,929,934,939,943,948,958,974,997,1024,1052,1084,1104,1108,1108,1108,1108,1108,1108,1108,1108,1108]","[472,472,472,472,472,472,472,472,472,472,472,471,471,471,471,471,471,471,471,471,471,471,471,471,471,471,471,471,470,469,469,469,469,469,470,473,474,477,479,480,480,481,481,483,483,483,483,479,474,470,469,469,469,469,469,469,469,469,469]","false","13.167000000000002","33","180","l","-300","910.7834642514645","0","399","AA","trial","36","manual-tracking","126","338126","0.0-0.0-0.63","","",""
"","","","","","","","","","","","","","","feedback","","html-button-response","127","339629","0.0-0.0-1.63","null","<p>Well done.</p>","null"
"2000.9000000953674","341946.09999990463","[436,436,436,438,445,456,468,484,505,522,538,555,577,594,608,622,635,649,664,679,695,714,729,743,756,767,777,786,795,804,819,833,849,867,886,905,922,938,950,973,985,1000,1022,1047,1070,1088,1104,1123,1145,1159,1169,1181,1193,1210,1231,1244,1250,1252,1252]","[470,470,470,470,470,470,470,470,470,470,470,469,468,467,466,466,466,465,465,464,464,464,464,464,464,464,465,466,469,472,475,478,479,481,481,481,481,480,480,479,479,479,479,479,478,477,475,472,468,465,463,461,460,459,459,460,460,461,461]","false","13.167000000000002","33","0","l","-300","908.9229688686373","0","399","AA","trial","64","manual-tracking","128","343875","0.0-0.0-0.64","","",""
"","","","","","","","","","","","","","","feedback","","html-button-response","129","345379","0.0-0.0-1.64","null","<p>Well done.</p>","null"
"2001.5999999046326","346880.5","[1043,1043,1043,1043,1042,1039,1033,1026,1010,995,975,955,936,921,910,900,893,886,874,861,841,816,788,765,746,728,715,702,690,674,661,648,633,616,599,575,556,535,514,496,479,462,447,429,399,371,345,327,313,297,281,271,271,271,271,271,271,271,271]","[476,476,476,476,476,476,476,476,476,476,476,475,475,473,473,472,472,472,472,472,472,472,472,472,472,472,472,474,475,476,476,477,477,477,477,477,478,478,479,481,483,485,485,486,486,486,486,483,479,478,478,480,480,480,480,480,480,480,480]","false","13.167000000000002","33","180","r","300","831.335047240702","0","399","AA","trial","76","manual-tracking","130","348810","0.0-0.0-0.65","","",""
"","","","","","","","","","","","","","","feedback","","html-button-response","131","350312","0.0-0.0-1.65","null","<p>Well done.</p>","null"
"2003.1999999284744","352363.5","[1039,1039,1039,1037,1031,1020,1006,982,954,928,904,875,863,852,845,838,828,818,807,792,776,761,744,727,710,692,674,658,639,616,593,570,549,535,515,502,492,483,472,459,448,438,426,413,400,389,377,361,349,339,334,332,331,331,331,331,331,331,331]","[464,464,464,464,464,464,464,464,465,466,468,471,472,472,472,473,474,476,478,480,482,482,483,483,483,482,481,480,479,479,479,479,478,477,476,476,476,475,473,473,473,473,473,474,475,477,479,479,479,479,479,479,479,479,479,479,479,479,479]","false","13.167000000000002","33","135","r","300","969.7680205819781","0","399","AA","trial","43","manual-tracking","132","354295","0.0-0.0-0.66","","",""
"","","","","","","","","","","","","","","feedback","","html-button-response","133","355798","0.0-0.0-1.66","null","<p>Well done.</p>","null"
"2001.5999999046326","357530","[437,437,437,437,437,437,437,437,437,437,437,437,444,462,495,525,557,583,607,627,641,653,665,681,696,718,744,771,798,821,836,857,869,878,887,896,907,919,932,947,965,977,991,1004,1015,1025,1034,1045,1062,1090,1118,1145,1166,1184,1205,1241,1279,1299,1303]","[475,475,475,475,475,475,475,475,475,475,475,475,475,475,475,473,472,470,470,470,470,470,472,472,473,473,473,473,473,475,477,479,479,479,479,479,479,479,479,478,478,478,478,478,477,477,476,475,475,475,482,488,492,493,493,493,493,491,490]","false","13.167000000000002","33","180","l","-300","840.0896884993809","0","399","AA","trial","20","manual-tracking","134","359459","0.0-0.0-0.67","","",""
"","","","","","","","","","","","","","","feedback","","html-button-response","135","360964","0.0-0.0-1.67","null","<p>Well done.</p>","null"
"2004.4000000953674","362646.59999990463","[1046,1046,1046,1046,1046,1046,1035,1028,1023,1015,1003,988,965,938,905,882,863,849,833,821,809,795,781,762,743,721,697,674,652,630,609,579,565,555,543,531,521,510,497,484,469,451,435,420,403,387,374,345,314,284,280,280,280,280,280,280,280,280]","[464,464,464,464,464,464,464,464,464,464,464,464,464,465,465,465,464,463,461,460,459,459,459,459,459,459,459,459,459,458,456,456,456,456,456,457,459,460,462,463,465,466,466,466,466,464,463,462,462,463,463,463,463,463,463,463,463,463]","false","13.167000000000002","33","0","r","300","1126.4535110670677","0","399","AA","trial","72","manual-tracking","136","364578","0.0-0.0-0.68","","",""
"","","","","","","","","","","","","","","feedback","","html-button-response","137","366079","0.0-0.0-1.68","null","<p>Well done.</p>","null"
"2001.8000000715256","367547.6999999285","[436,446,458,472,498,516,527,535,542,551,561,569,575,579,592,605,626,652,683,714,742,762,772,778,782,788,798,814,836,863,899,926,952,972,984,997,1001,1004,1008,1016,1025,1036,1047,1061,1082,1107,1130,1151,1188,1208,1218,1219,1219,1219,1219,1219,1219,1219,1219]","[466,466,466,466,466,466,466,469,472,474,476,476,476,476,473,470,467,465,464,463,462,462,462,461,460,459,458,457,457,457,461,464,466,468,469,470,470,470,470,470,470,469,469,468,468,468,468,468,469,470,470,470,470,470,470,470,470,470,470]","false","13.167000000000002","33","0","l","-300","923.9159687970437","0","399","AA","trial","32","manual-tracking","138","369477","0.0-0.0-0.69","","",""
"","","","","","","","","","","","","","","feedback","","html-button-response","139","370978","0.0-0.0-1.69","null","<p>Well done.</p>","null"
"2001.7999999523163","372446.2999999523","[438,438,438,440,443,448,453,461,471,497,516,538,558,576,589,602,611,619,628,637,650,666,682,699,718,732,749,764,773,788,798,805,812,818,826,836,850,863,876,888,903,919,941,964,982,1000,1016,1035,1050,1067,1083,1103,1122,1171,1195,1205,1207,1207,1207]","[467,467,467,467,467,467,467,467,467,467,467,467,467,467,467,467,467,467,467,467,467,467,467,467,467,468,470,472,472,473,473,474,474,474,474,474,474,474,474,475,475,475,475,472,470,468,467,467,468,470,472,476,478,478,476,473,473,473,473]","false","13.167000000000002","33","90","l","-300","1039.051942673625","0","399","AA","trial","50","manual-tracking","140","374375","0.0-0.0-0.70","","",""
"","","","","","","","","","","","","","","feedback","","html-button-response","141","375878","0.0-0.0-1.70","null","<p>Well done.</p>","null"
"2001.5","377513.2999999523","[447,449,457,464,474,484,496,514,536,558,579,602,617,631,642,657,666,676,687,698,715,730,745,757,769,778,786,794,803,817,831,841,850,859,869,880,893,906,924,936,957,970,983,997,1011,1025,1039,1050,1063,1077,1093,1112,1138,1166,1184,1196,1199,1200,1200]","[465,465,465,465,465,465,465,465,464,462,459,457,456,456,456,456,457,458,459,460,460,460,460,461,462,464,467,468,470,471,471,471,471,472,472,472,472,472,471,470,470,470,470,470,470,470,470,471,472,472,472,472,471,470,470,470,470,470,470]","false","13.167000000000002","33","180","l","-300","804.0521691861796","0","399","AA","trial","52","manual-tracking","142","379442","0.0-0.0-0.71","","",""
"","","","","","","","","","","","","","","feedback","","html-button-response","143","380943","0.0-0.0-1.71","null","<p>Well done.</p>","null"
"2001","383397","[1042,1042,1039,1035,1031,1027,1018,1008,991,969,935,914,899,884,871,858,845,830,819,807,794,781,767,750,736,726,713,703,693,680,670,659,641,626,609,589,566,544,522,494,474,461,448,434,418,400,385,368,356,342,330,318,304,290,274,266,260,259,259]","[470,470,470,470,470,470,470,471,474,476,479,480,480,481,481,481,483,484,484,484,484,484,484,484,482,479,476,474,472,471,469,469,467,467,467,467,469,471,474,475,476,478,480,484,488,491,493,494,494,494,494,494,493,490,486,482,479,478,478]","false","13.167000000000002","33","315","r","300","1163.7023610901776","0","399","AA","trial","79","manual-tracking","144","385325","0.0-0.0-0.72","","",""
"","","","","","","","","","","","","","","feedback","","html-button-response","145","386826","0.0-0.0-1.72","null","<p>Well done.</p>","null"
"2000.7000000476837","388697.59999990463","[1036,1036,1036,1035,1030,1025,1020,1002,984,956,929,910,895,883,873,860,851,841,825,811,793,775,758,742,726,711,696,680,666,644,632,621,608,596,582,571,554,542,530,517,501,483,462,441,420,384,374,346,332,317,307,294,284,276,271,270,270,270,270]","[466,466,466,466,466,466,466,466,466,466,470,473,474,474,474,474,473,472,471,469,466,463,460,457,454,452,451,450,450,452,454,455,459,462,467,471,477,479,480,480,479,478,476,474,472,472,472,474,475,476,476,476,475,475,475,475,475,475,475]","false","13.167000000000002","33","315","r","300","846.3542457840061","0","399","AA","trial","47","manual-tracking","146","390625","0.0-0.0-0.73","","",""
"","","","","","","","","","","","","","","feedback","","html-button-response","147","392127","0.0-0.0-1.73","null","<p>Well done.</p>","null"
"2001.1000000238419","393530.6999999285","[440,440,447,458,472,481,489,499,507,518,532,541,553,565,581,599,619,641,685,708,719,739,751,763,777,787,797,805,818,829,843,858,873,890,908,924,939,958,970,985,1001,1018,1036,1057,1079,1122,1144,1162,1178,1186,1208,1224,1234,1240,1242,1242,1242,1242,1242]","[469,469,469,469,469,469,469,469,469,469,469,470,470,470,468,466,466,466,466,466,466,466,466,466,465,463,463,463,463,462,462,461,461,461,461,461,461,461,462,462,462,462,462,462,462,465,466,466,466,466,466,466,469,471,473,473,473,473,473]","false","13.167000000000002","33","270","l","-300","950.564017982052","0","399","AA","trial","38","manual-tracking","148","395458","0.0-0.0-0.74","","",""
"","","","","","","","","","","","","","","feedback","","html-button-response","149","396960","0.0-0.0-1.74","null","<p>Well done.</p>","null"
"2000.8000000715256","398981.09999990463","[1038,1038,1038,1038,1038,1038,1033,1022,989,977,946,927,914,898,886,871,854,830,808,785,763,741,724,711,698,689,679,670,659,650,640,628,614,599,585,566,554,540,529,515,504,492,478,469,458,451,443,428,418,404,391,379,367,355,348,340,332,326,317]","[466,466,466,466,466,466,466,466,462,460,456,456,456,456,456,456,458,459,459,460,460,460,460,460,460,460,460,460,460,460,460,462,463,466,467,470,471,474,475,477,478,478,478,478,478,478,478,478,478,478,478,478,478,478,478,478,478,478,478]","false","13.167000000000002","33","180","r","300","1187.9224460619828","0","399","AA","trial","28","manual-tracking","150","400908","0.0-0.0-0.75","","",""
"","","","","","","","","","","","","","","feedback","","html-button-response","151","402414","0.0-0.0-1.75","null","<p>Well done.</p>","null"
"2001.3999999761581","403964.7999999523","[435,436,443,453,462,471,476,483,494,506,518,531,544,560,574,587,606,619,632,647,663,681,705,721,736,750,764,779,795,809,824,842,856,869,881,895,904,914,926,939,964,981,998,1016,1033,1052,1073,1092,1108,1134,1153,1166,1171,1173,1174,1174,1174,1174,1174]","[471,471,471,471,471,471,471,471,471,469,468,466,465,464,463,463,463,463,463,463,464,465,465,465,466,467,467,468,468,468,468,469,470,471,471,472,473,473,473,474,474,474,474,474,474,474,474,476,479,481,481,481,480,480,480,481,482,482,482]","false","13.167000000000002","33","315","l","-300","1083.4411052788503","0","399","AA","trial","23","manual-tracking","152","405892","0.0-0.0-0.76","","",""
"","","","","","","","","","","","","","","feedback","","html-button-response","153","407394","0.0-0.0-1.76","null","<p>Well done.</p>","null"
"2000.6000000238419","408997.2999999523","[1040,1040,1040,1040,1039,1034,1022,1000,978,943,919,902,886,871,861,852,844,836,827,812,794,770,742,712,679,654,632,617,601,586,572,560,540,524,513,504,495,486,478,471,460,452,440,431,419,407,397,388,380,370,359,350,339,326,307,282,260,246,241]","[469,469,469,469,469,469,469,469,470,476,479,481,482,482,482,482,480,478,476,473,470,468,467,466,465,464,462,460,456,453,452,451,450,450,450,450,452,453,455,457,460,462,463,464,466,467,469,470,472,473,474,475,476,476,471,468,468,471,476]","false","13.167000000000002","33","45","r","300","1097.0103170248085","0","399","AA","trial","57","manual-tracking","154","410923","0.0-0.0-0.77","","",""
"","","","","","","","","","","","","","","feedback","","html-button-response","155","412426","0.0-0.0-1.77","null","<p>Well done.</p>","null"
"2002.2999999523163","413730.7999999523","[446,446,448,451,455,460,465,473,482,499,514,539,555,570,586,599,611,628,639,652,664,675,686,700,710,724,741,755,776,791,806,819,833,848,861,873,882,889,898,912,925,939,954,970,991,1009,1034,1063,1090,1113,1135,1158,1185,1190,1191,1191,1191,1191,1191]","[472,472,472,472,472,472,472,472,472,472,472,472,472,472,471,471,471,471,471,471,471,472,473,474,475,476,477,477,477,477,477,477,477,477,477,477,477,477,477,477,474,472,470,469,468,468,468,468,470,470,471,473,476,476,476,476,476,476,476]","false","13.167000000000002","33","315","l","-300","1116.4612111633892","0","399","AA","trial","55","manual-tracking","156","415658","0.0-0.0-0.78","","",""
"","","","","","","","","","","","","","","feedback","","html-button-response","157","417160","0.0-0.0-1.78","null","<p>Well done.</p>","null"
"2001.1000000238419","419264.1999999285","[1042,1042,1040,1037,1034,1030,1026,1019,1010,989,973,958,944,931,912,899,890,881,873,860,845,827,805,779,760,744,729,717,703,690,677,661,649,628,613,605,587,575,566,558,548,540,529,516,502,486,470,453,439,423,414,407,400,392,384,376,364,352,338]","[465,465,465,465,465,465,465,465,465,469,472,473,474,474,474,475,475,475,474,472,472,471,471,470,470,469,467,467,465,465,465,465,465,467,468,470,472,474,474,475,476,477,479,480,481,482,483,484,486,488,489,489,489,489,488,486,483,479,476]","false","13.167000000000002","33","0","r","300","1036.6418830888738","0","399","AA","trial","56","manual-tracking","158","421190","0.0-0.0-0.79","","",""
"","","","","","","","","","","","","","","feedback","","html-button-response","159","422693","0.0-0.0-1.79","null","<p>Well done.</p>","null"
